time,seconds_elapsed,z,y,x
1772558480056997400,0.290997314453125,-0.0675058364868164,-0.0962672233581543,-0.10153055191040039
1772558480075769900,0.309769775390625,0.12457656860351562,-0.0423731803894043,-0.04613184928894043
1772558480094542000,0.3285419921875,-0.1673874855041504,-0.007538795471191406,-0.09094119071960449
1772558480113314600,0.347314453125,0.0037298202514648438,0.06873321533203125,-0.011551141738891602
1772558480132086800,0.366086669921875,-0.0624237060546875,-0.02161693572998047,-0.036127567291259766
1772558480150859300,0.384859375,-0.3105940818786621,0.06622648239135742,-0.049118757247924805
1772558480169631500,0.403631591796875,-0.04027843475341797,0.09476947784423828,-0.031221628189086914
1772558480188403700,0.42240380859375,0.1503448486328125,-0.07361984252929688,0.0235745906829834
1772558480207176200,0.44117626953125,0.11180591583251953,0.048293113708496094,-0.005177021026611328
1772558480225948400,0.459948486328125,0.04759788513183594,0.03841543197631836,-0.007113218307495117
1772558480244721000,0.478720947265625,-0.16902685165405273,0.11490869522094727,-0.03989601135253906
1772558480263493000,0.4974931640625,0.021997451782226562,0.08738231658935547,0.0043239593505859375
1772558480282265600,0.516265625,0.24945449829101562,0.033339500427246094,0.07682013511657715
1772558480301037800,0.535037841796875,-0.06844139099121094,0.04934501647949219,0.012088298797607422
1772558480319810300,0.553810302734375,-0.18369770050048828,0.0825347900390625,-0.008107423782348633
1772558480338582500,0.57258251953125,0.004857063293457031,0.07896566390991211,-0.035158395767211914
1772558480357354800,0.591354736328125,0.05095958709716797,-0.012308120727539062,-0.054122209548950195
1772558480376127200,0.610127197265625,-0.0020465850830078125,-0.01942920684814453,-0.014611005783081055
1772558480394899500,0.6288994140625,-0.01192474365234375,0.0773782730102539,-0.010422229766845703
1772558480413672000,0.647671875,-0.0200347900390625,0.09447765350341797,0.019931554794311523
1772558480432444200,0.666444091796875,-0.12559127807617188,0.10902976989746094,0.0025534629821777344
1772558480451216400,0.68521630859375,-0.0359649658203125,0.0415043830871582,0.012606382369995117
1772558480469988900,0.70398876953125,0.10010433197021484,0.023016929626464844,0.03409910202026367
1772558480488761000,0.722760986328125,0.055389404296875,0.09348011016845703,0.03075242042541504
1772558480507533600,0.741533447265625,-0.025453567504882812,0.10716390609741211,0.012086629867553711
1772558480526305800,0.760305908203125,-0.09000301361083984,0.06817150115966797,-0.041046142578125
1772558480545078300,0.779078369140625,-0.029085159301757812,-0.011215686798095703,-0.07305765151977539
1772558480563850500,0.7978505859375,0.11281871795654297,0.017409801483154297,-0.04971575736999512
1772558480582622700,0.816622802734375,0.13549423217773438,0.043332576751708984,-0.00809025764465332
1772558480601395200,0.835395263671875,-0.0047454833984375,0.10360145568847656,0.03372359275817871
1772558480620167400,0.85416748046875,-0.13671064376831055,0.18468761444091797,0.012583494186401367
1772558480638940000,0.87293994140625,0.053078651428222656,0.1697540283203125,0.019162893295288086
1772558480657712000,0.891712158203125,0.08002281188964844,0.025565624237060547,0.0041887760162353516
1772558480676484600,0.910484619140625,0.017469406127929688,0.0104522705078125,-0.020767927169799805
1772558480695256800,0.9292568359375,0.0769033432006836,0.0557098388671875,-0.04952812194824219
1772558480714029300,0.948029296875,0.09027385711669922,0.047644615173339844,-0.03856801986694336
1772558480732801500,0.966801513671875,-0.05823040008544922,0.11013317108154297,-0.04878711700439453
1772558480751573800,0.98557373046875,-0.12555217742919922,0.0426936149597168,-0.041993141174316406
1772558480770346200,1.00434619140625,-0.03268146514892578,0.09047079086303711,-0.02872014045715332
1772558480789118500,1.023118408203125,0.15009021759033203,-0.02310800552368164,-0.021488428115844727
1772558480807891000,1.041890869140625,0.05366230010986328,-0.009701251983642578,-0.04874897003173828
1772558480826663200,1.0606630859375,-0.03335380554199219,0.05726051330566406,-0.035857200622558594
1772558480845435600,1.079435546875,-0.10481548309326172,0.037685394287109375,-0.0574641227722168
1772558480864208000,1.098207763671875,-0.1374073028564453,0.0188751220703125,-0.06767535209655762
1772558480882980000,1.11697998046875,0.035544395446777344,0.013331890106201172,-0.009589910507202148
1772558480901752600,1.135752685546875,0.07598114013671875,0.025454998016357422,0.02777838706970215
1772558480920524800,1.15452490234375,-0.017572402954101562,0.05418586730957031,0.05572247505187988
1772558480939297300,1.17329736328125,-0.16059541702270508,0.09946203231811523,0.019342899322509766
1772558480958069500,1.192069580078125,-0.10665416717529297,0.04791975021362305,0.018336057662963867
1772558480976841700,1.210841796875,-0.03516674041748047,0.005284786224365234,-0.015585184097290039
1772558480995614200,1.2296142578125,0.0077953338623046875,0.014103412628173828,-0.04111981391906738
1772558481014386400,1.248386474609375,0.07573795318603516,0.09386014938354492,-0.059927940368652344
1772558481033159000,1.267158935546875,0.10120677947998047,0.12806463241577148,-0.058246612548828125
1772558481051931100,1.28593115234375,0.058197975158691406,0.10704803466796875,-0.03144955635070801
1772558481070703600,1.30470361328125,0.02939891815185547,0.07230854034423828,-0.014316082000732422
1772558481089475800,1.323475830078125,0.07368183135986328,0.024585247039794922,0.011914968490600586
1772558481108248300,1.342248291015625,0.09229564666748047,0.08659219741821289,-0.0032978057861328125
1772558481127020500,1.3610205078125,0.008568763732910156,0.09017658233642578,0.03639101982116699
1772558481145792800,1.379792724609375,-0.18529176712036133,0.16131877899169922,-0.003968238830566406
1772558481164565200,1.398565185546875,0.14211368560791016,0.08115816116333008,0.05189061164855957
1772558481183337500,1.41733740234375,-0.08452033996582031,0.045468807220458984,0.0061016082763671875
1772558481202110000,1.43610986328125,-0.0022525787353515625,0.11221122741699219,0.005041599273681641
1772558481220882200,1.454882080078125,0.19898223876953125,0.04362916946411133,0.012850761413574219
1772558481239654700,1.473654541015625,0.023917198181152344,0.11832666397094727,-0.010613203048706055
1772558481258427000,1.492427001953125,-0.06366729736328125,0.09436225891113281,0.007567644119262695
1772558481277199400,1.511199462890625,-0.02806377410888672,0.08196449279785156,0.010004281997680664
1772558481295971600,1.5299716796875,0.11314582824707031,-0.04120635986328125,0.0217897891998291
1772558481314744000,1.548744140625,-0.0750732421875,-0.025887489318847656,-0.039377450942993164
1772558481333516300,1.567516357421875,-0.16436338424682617,0.0041370391845703125,-0.07045650482177734
1772558481352288500,1.58628857421875,-0.060700416564941406,-0.007998466491699219,-0.06810641288757324
1772558481371061000,1.60506103515625,-0.06367969512939453,-0.03374195098876953,-0.07297658920288086
1772558481389833200,1.623833251953125,-0.04325294494628906,-0.06222724914550781,-0.0735006332397461
1772558481408605700,1.642605712890625,0.06230735778808594,-0.05645132064819336,-0.027112960815429688
1772558481427378000,1.6613779296875,-0.017213821411132812,0.049813270568847656,-0.06290626525878906
1772558481446150400,1.680150390625,0.03839683532714844,0.03273439407348633,0.0069696903228759766
1772558481464922600,1.698922607421875,-0.07706069946289062,0.09392118453979492,-0.03927421569824219
1772558481483695000,1.717695068359375,-0.1232748031616211,0.041721343994140625,-0.04619169235229492
1772558481502467300,1.73646728515625,0.08938312530517578,0.009857177734375,-0.010683774948120117
1772558481521239600,1.755239501953125,-0.006682395935058594,0.0060367584228515625,-0.014911174774169922
1772558481540012000,1.774011962890625,-0.07660770416259766,0.0876626968383789,0.005572080612182617
1772558481558784300,1.7927841796875,-0.1440868377685547,0.09214210510253906,-0.0391240119934082
1772558481577556700,1.811556640625,0.03275108337402344,0.03083944320678711,-0.029570579528808594
1772558481596329000,1.830328857421875,0.22431564331054688,0.04670095443725586,0.019317626953125
1772558481615101400,1.849101318359375,0.06839370727539062,0.12280464172363281,0.032503604888916016
1772558481633873700,1.867873779296875,-0.06517791748046875,0.15632915496826172,0.00811910629272461
1772558481652646100,1.886646240234375,0.06180763244628906,0.05649137496948242,-0.05332446098327637
1772558481671418400,1.90541845703125,0.11760616302490234,-0.032286643981933594,-0.0413212776184082
1772558481690190600,1.924190673828125,-0.14709758758544922,-0.015656471252441406,-0.10596013069152832
1772558481708963000,1.942963134765625,-0.14822006225585938,0.0036630630493164062,-0.04969191551208496
1772558481727735300,1.9617353515625,-0.04889488220214844,-0.010264396667480469,-0.028511762619018555
1772558481746507800,1.9805078125,0.0014905929565429688,-0.0370941162109375,-0.02245163917541504
1772558481765280000,1.999280029296875,-0.07335758209228516,-0.0052947998046875,-0.014832735061645508
1772558481784052500,2.018052490234375,-0.014837265014648438,0.0554661750793457,0.007803678512573242
1772558481802824700,2.03682470703125,0.042999267578125,0.10776042938232422,0.04056286811828613
1772558481821597200,2.05559716796875,-0.026441574096679688,0.15987491607666016,0.07716679573059082
1772558481840369400,2.074369384765625,-0.028580665588378906,0.15592575073242188,0.0958712100982666
1772558481859141600,2.0931416015625,0.05019092559814453,0.1184849739074707,0.11781644821166992
1772558481877914000,2.1119140625,0.19086360931396484,0.10389375686645508,0.1192331314086914
1772558481896686300,2.130686279296875,0.1430492401123047,0.11573505401611328,0.07268071174621582
1772558481915458800,2.149458740234375,-0.12373828887939453,0.10390186309814453,0.029618263244628906
1772558481934231000,2.16823095703125,-0.1116037368774414,0.1533527374267578,0.035947322845458984
1772558481953003500,2.18700341796875,0.012684822082519531,0.04245424270629883,0.04492759704589844
1772558481971775700,2.205775634765625,0.009471893310546875,0.0052318572998046875,0.07077240943908691
1772558481990548200,2.22454833984375,-0.052468299865722656,0.09812068939208984,0.1340317726135254
1772558482009320400,2.243320556640625,-0.18068170547485352,0.19367027282714844,0.1258852481842041
1772558482028093000,2.262093017578125,-0.11290931701660156,0.16306161880493164,0.05856156349182129
1772558482046865200,2.280865234375,0.12827491760253906,0.1458449363708496,0.026536941528320312
1772558482065637600,2.2996376953125,0.07183456420898438,0.12146759033203125,0.012677192687988281
1772558482084409900,2.318409912109375,0.30621337890625,0.1434955596923828,0.022087812423706055
1772558482103182300,2.337182373046875,0.2058849334716797,0.1540975570678711,-0.023751020431518555
1772558482121954600,2.35595458984375,0.12144851684570312,0.17900562286376953,-0.039185285568237305
1772558482140726800,2.374726806640625,0.02758312225341797,0.1376490592956543,-0.07612299919128418
1772558482159499300,2.393499267578125,-0.0028810501098632812,0.07579708099365234,-0.054017066955566406
1772558482178271500,2.412271484375,0.13289833068847656,0.06401824951171875,-0.04786229133605957
1772558482197044000,2.4310439453125,0.012206077575683594,0.023145198822021484,-0.09642338752746582
1772558482215816200,2.449816162109375,-0.12081241607666016,0.034886837005615234,-0.08397674560546875
1772558482234588700,2.468588623046875,-0.2078990936279297,0.10419559478759766,-0.1012265682220459
1772558482253361000,2.48736083984375,-0.11151790618896484,0.044390201568603516,-0.11144375801086426
1772558482272133400,2.50613330078125,0.13193321228027344,-0.052500247955322266,-0.08929085731506348
1772558482290905600,2.524905517578125,0.17355918884277344,-0.07421112060546875,-0.07183051109313965
1772558482309677800,2.543677734375,-0.007178306579589844,0.029080867767333984,-0.05715131759643555
1772558482328450300,2.5624501953125,-0.12537574768066406,0.04834794998168945,-0.04724574089050293
1772558482347222500,2.581222412109375,0.003635406494140625,0.0009398460388183594,-0.021459341049194336
1772558482365995000,2.5999951171875,0.10764026641845703,-0.043514251708984375,-0.012962102890014648
1772558482384767500,2.618767578125,0.020246505737304688,0.02498483657836914,-0.0023195743560791016
1772558482403539700,2.637539794921875,-0.19232606887817383,0.10175609588623047,-0.025999069213867188
1772558482422312000,2.65631201171875,-0.19286394119262695,0.08404970169067383,-0.04491233825683594
1772558482441084400,2.67508447265625,0.03494548797607422,0.02186107635498047,-0.018787860870361328
1772558482459856600,2.693856689453125,0.2354116439819336,-0.04188823699951172,0.0414881706237793
1772558482478629000,2.712629150390625,0.12337017059326172,0.0635075569152832,0.04123950004577637
1772558482497401300,2.7314013671875,-0.1529703140258789,0.14433860778808594,0.04212069511413574
1772558482516173800,2.750173828125,-0.23457002639770508,0.11309337615966797,-0.009965658187866211
1772558482534946000,2.768946044921875,0.010217666625976562,0.041169166564941406,0.012180805206298828
1772558482553718500,2.787718505859375,0.1522064208984375,0.011755943298339844,0.04399418830871582
1772558482572490800,2.80649072265625,-0.0009212493896484375,0.053342342376708984,0.031402587890625
1772558482591263200,2.82526318359375,-0.1471395492553711,0.10888862609863281,-0.028589963912963867
1772558482610035500,2.844035400390625,-0.07760047912597656,0.07265377044677734,-0.04000496864318848
1772558482628808000,2.862807861328125,0.06513404846191406,0.00815439224243164,-0.015712261199951172
1772558482647580200,2.881580078125,0.24039459228515625,-0.038936614990234375,0.03988051414489746
1772558482666352600,2.9003525390625,0.134033203125,0.05134773254394531,0.061582326889038086
1772558482685124900,2.919124755859375,-0.1714167594909668,0.1401376724243164,0.036025047302246094
1772558482703897300,2.9378974609375,-0.22178316116333008,0.15606212615966797,0.0028591156005859375
1772558482722669600,2.956669677734375,0.012913703918457031,0.08760786056518555,0.024428844451904297
1772558482741441800,2.97544189453125,0.17612361907958984,0.0173187255859375,0.05536794662475586
1772558482760214300,2.99421435546875,0.020175933837890625,0.02833414077758789,0.03365063667297363
1772558482778986500,3.012986572265625,-0.07547473907470703,0.08929157257080078,-0.008171319961547852
1772558482797759000,3.031759033203125,-0.028055191040039062,0.1176605224609375,-0.038140058517456055
1772558482816531200,3.05053125,0.1160879135131836,0.09234380722045898,0.018082857131958008
1772558482835303700,3.0693037109375,0.12348651885986328,0.06447505950927734,0.05123019218444824
1772558482854076000,3.088075927734375,-0.047751426696777344,0.1088404655456543,0.03670334815979004
1772558482872848400,3.106848388671875,-0.06854820251464844,0.10670757293701172,-0.016271114349365234
1772558482891620600,3.12562060546875,0.050434112548828125,0.07160234451293945,-0.02045464515686035
1772558482910393000,3.14439306640625,0.10527420043945312,0.051199913024902344,-0.01170659065246582
1772558482929165300,3.163165283203125,-0.025655746459960938,0.06843805313110352,0.0017614364624023438
1772558482947937800,3.181937744140625,-0.031395912170410156,0.027227401733398438,0.004005908966064453
1772558482966710000,3.2007099609375,-0.04363727569580078,0.018268108367919922,-0.010952949523925781
1772558482985482500,3.219482421875,-0.010675430297851562,0.049190521240234375,-0.026610374450683594
1772558483004254700,3.238254638671875,0.10068893432617188,0.0608668327331543,0.02092599868774414
1772558483023027200,3.257027099609375,0.08315467834472656,0.08652210235595703,0.03630256652832031
1772558483041799400,3.27579931640625,-0.06893062591552734,0.11446046829223633,0.02475571632385254
1772558483060572000,3.294572021484375,-0.10453510284423828,0.1134638786315918,0.0010025501251220703
1772558483079344000,3.31334423828125,0.09808921813964844,0.03774118423461914,0.006634950637817383
1772558483098116600,3.33211669921875,0.21350955963134766,-0.046822547912597656,-0.03239130973815918
1772558483116888800,3.350888916015625,-0.10034751892089844,-0.027907371520996094,-0.1122136116027832
1772558483135661300,3.369661376953125,-0.14740276336669922,0.026546478271484375,-0.08876371383666992
1772558483154433500,3.38843359375,0.005404472351074219,-0.024659156799316406,0.00627899169921875
1772558483173206000,3.4072060546875,-0.00872039794921875,-0.03223609924316406,0.0407567024230957
1772558483191978200,3.425978271484375,-0.12224102020263672,0.029989242553710938,0.028580188751220703
1772558483210750700,3.444750732421875,-0.0720968246459961,0.07157754898071289,0.05655074119567871
1772558483229523000,3.46352294921875,-0.06843280792236328,0.07950401306152344,0.02529454231262207
1772558483248295400,3.48229541015625,-0.05185985565185547,0.058451175689697266,0.017945528030395508
1772558483267067600,3.501067626953125,-0.007946014404296875,0.026476383209228516,0.049192190170288086
1772558483285840100,3.519840087890625,-0.0693206787109375,0.031096458435058594,0.0063381195068359375
1772558483304612400,3.5386123046875,-0.06966400146484375,0.0709075927734375,-0.0329737663269043
1772558483323384800,3.557384765625,-0.05811119079589844,0.1382617950439453,-0.04887127876281738
1772558483342157000,3.576156982421875,0.008678436279296875,0.16052579879760742,-0.055667877197265625
1772558483360929500,3.594929443359375,0.26140499114990234,0.1488194465637207,-0.017830610275268555
1772558483379701800,3.61370166015625,0.3478384017944336,0.06962203979492188,-0.05557370185852051
1772558483398474200,3.63247412109375,0.1423797607421875,0.10685920715332031,-0.10236620903015137
1772558483417246500,3.65124658203125,0.051639556884765625,0.1146540641784668,-0.08522152900695801
1772558483436019000,3.67001904296875,0.08922672271728516,0.0833749771118164,-0.061537742614746094
1772558483454791200,3.688791259765625,0.037705421447753906,0.014023303985595703,-0.04840993881225586
1772558483473563600,3.707563720703125,-0.03873443603515625,0.01694011688232422,-0.019537925720214844
1772558483492335900,3.7263359375,-0.1023702621459961,0.025504112243652344,0.0204010009765625
1772558483511108400,3.7451083984375,-0.047522544860839844,0.03782510757446289,0.06620907783508301
1772558483529880600,3.763880615234375,-0.019298553466796875,0.052707672119140625,0.08837151527404785
1772558483548653000,3.782653076171875,-0.2578468322753906,0.019980907440185547,0.038639068603515625
1772558483567425300,3.80142529296875,-0.29206323623657227,0.039948463439941406,0.028263330459594727
1772558483586197800,3.82019775390625,-0.1101522445678711,-0.01680278778076172,-0.002535581588745117
1772558483604970000,3.838969970703125,0.26233482360839844,-0.03740644454956055,0.06783866882324219
1772558483623742500,3.857742431640625,-0.11106681823730469,0.004718303680419922,0.0060198307037353516
1772558483642514700,3.8765146484375,-0.22981691360473633,0.11417627334594727,-0.045842647552490234
1772558483661287200,3.895287109375,0.21147727966308594,0.02245807647705078,0.0015904903411865234
1772558483680059400,3.914059326171875,0.07239151000976562,-0.08043909072875977,-0.028611183166503906
1772558483698832000,3.932831787109375,-0.1443939208984375,0.03455638885498047,-0.04557085037231445
1772558483717604000,3.95160400390625,0.014311790466308594,0.11331748962402344,-0.03464674949645996
1772558483736376600,3.97037646484375,0.051590919494628906,0.09463214874267578,-0.034064531326293945
1772558483755148800,3.989148681640625,-0.02805328369140625,0.13084840774536133,0.004315614700317383
1772558483773921300,4.00792138671875,0.32523632049560547,0.14473962783813477,0.0743708610534668
1772558483792693500,4.026693603515625,-0.04330730438232422,0.04648399353027344,0.009808540344238281
1772558483811466000,4.045466064453125,-0.2676544189453125,-0.004533290863037109,-0.09016823768615723
1772558483830238200,4.06423828125,-0.041932106018066406,0.007366657257080078,-0.12188982963562012
1772558483849010700,4.0830107421875,0.1474628448486328,-0.06539058685302734,-0.06728816032409668
1772558483867783000,4.101782958984375,-0.10153388977050781,-0.014027595520019531,-0.08079123497009277
1772558483886555400,4.120555419921875,-0.1897292137145996,0.1526656150817871,-0.07965612411499023
1772558483905327600,4.13932763671875,-0.0168609619140625,0.12035083770751953,-0.0059337615966796875
1772558483924100000,4.15810009765625,-0.06315040588378906,0.10681295394897461,-0.011623382568359375
1772558483942872300,4.176872314453125,0.43058109283447266,0.03706836700439453,0.036220550537109375
1772558483961644800,4.195644775390625,0.11174297332763672,0.037362098693847656,-0.030656814575195312
1772558483980417000,4.2144169921875,-0.2910299301147461,0.12284517288208008,-0.12869501113891602
1772558483999189500,4.233189453125,-0.010647773742675781,0.0712881088256836,-0.12030744552612305
1772558484017961700,4.251961669921875,0.31179046630859375,-0.12497234344482422,-0.006025552749633789
1772558484036734200,4.270734130859375,0.11641597747802734,0.0009970664978027344,0.047435760498046875
1772558484055506400,4.28950634765625,-0.16149330139160156,0.11269950866699219,0.05404090881347656
1772558484074279000,4.30827880859375,-0.2171483039855957,0.2096710205078125,0.025105714797973633
1772558484093051400,4.327051513671875,-0.015809059143066406,0.07588577270507812,0.05648660659790039
1772558484111823600,4.34582373046875,-0.07850074768066406,0.020975112915039062,0.07894587516784668
1772558484130595800,4.364595947265625,0.03340911865234375,0.11818695068359375,0.12169885635375977
1772558484149368300,4.383368408203125,-0.054076194763183594,0.09043073654174805,0.08343219757080078
1772558484168140800,4.402140869140625,-0.12512683868408203,0.06374645233154297,0.026803016662597656
1772558484186913000,4.4209130859375,-0.01161956787109375,0.022277355194091797,0.014386177062988281
1772558484205685500,4.439685546875,0.11945819854736328,-0.014349937438964844,0.050169944763183594
1772558484224457700,4.458457763671875,0.14456653594970703,0.012850761413574219,0.0989828109741211
1772558484243230200,4.477230224609375,-0.09588432312011719,0.15964269638061523,0.07783746719360352
1772558484262002400,4.49600244140625,-0.21396112442016602,0.22396421432495117,0.07585024833679199
1772558484280775000,4.51477490234375,0.004794120788574219,0.1439347267150879,0.05212092399597168
1772558484299547100,4.533547119140625,0.23881244659423828,0.02379608154296875,0.08472371101379395
1772558484318319600,4.552319580078125,0.045578956604003906,0.07097816467285156,0.009746789932250977
1772558484337091800,4.571091796875,-0.14527130126953125,0.11296749114990234,-0.05386495590209961
1772558484355864300,4.5898642578125,0.07385540008544922,0.026646137237548828,-0.07624316215515137
1772558484374636500,4.608636474609375,0.12111949920654297,-0.04677391052246094,-0.08399081230163574
1772558484393409000,4.627408935546875,0.02644824981689453,-0.02266979217529297,-0.08069705963134766
1772558484412181200,4.64618115234375,-0.1260852813720703,0.05218935012817383,-0.10237479209899902
1772558484430953700,4.66495361328125,-0.11167049407958984,0.018204689025878906,-0.10358643531799316
1772558484449726000,4.683725830078125,-0.02007579803466797,0.0348968505859375,-0.1098783016204834
1772558484468498400,4.70249853515625,0.07165336608886719,0.025373458862304688,-0.04252886772155762
1772558484487271000,4.72127099609375,0.0325164794921875,0.102935791015625,-0.05553603172302246
1772558484506043100,4.740043212890625,0.02077198028564453,0.026110172271728516,-0.07469677925109863
1772558484524815600,4.758815673828125,-0.00022602081298828125,0.014351367950439453,-0.11075305938720703
1772558484543587800,4.777587890625,-0.0830678939819336,-0.06490945816040039,-0.13631319999694824
1772558484562360300,4.7963603515625,-0.005722999572753906,0.030682086944580078,-0.07334661483764648
1772558484581132500,4.815132568359375,0.045798301696777344,0.05393028259277344,-0.032334089279174805
1772558484599905000,4.833905029296875,-0.007898330688476562,0.1108713150024414,0.018992185592651367
1772558484618677200,4.85267724609375,-0.062835693359375,0.1267542839050293,0.038869380950927734
1772558484637449700,4.87144970703125,-0.05774116516113281,0.17812061309814453,0.02924656867980957
1772558484656222000,4.890221923828125,0.07588863372802734,0.1182093620300293,0.01816701889038086
1772558484674994400,4.908994384765625,0.14159393310546875,0.09666156768798828,0.026706457138061523
1772558484693766700,4.9277666015625,0.10218620300292969,0.11928272247314453,0.03309488296508789
1772558484712539100,4.9465390625,-0.0004787445068359375,0.06461000442504883,0.021535158157348633
1772558484731311600,4.9653115234375,-0.018810272216796875,0.03113269805908203,0.006438493728637695
1772558484750083800,4.984083740234375,0.03764057159423828,0.0707554817199707,0.0196688175201416
1772558484768856300,5.002856201171875,0.029961585998535156,0.11192083358764648,0.047881364822387695
1772558484787628500,5.021628662109375,-0.03446006774902344,0.15825796127319336,0.06942534446716309
1772558484806401000,5.040401123046875,-0.0030956268310546875,0.13976335525512695,0.09688210487365723
1772558484825173200,5.05917333984375,0.0002460479736328125,0.10912084579467773,0.08486580848693848
1772558484843945700,5.07794580078125,0.10325145721435547,0.08456230163574219,0.08023214340209961
1772558484862718000,5.096718017578125,0.018075942993164062,0.039051055908203125,0.0612483024597168
1772558484881490400,5.115490478515625,-0.040238380432128906,0.09717941284179688,0.04885220527648926
1772558484900263000,5.134262939453125,-0.06076812744140625,0.04618263244628906,0.037610769271850586
1772558484919035100,5.15303515625,0.026788711547851562,0.015778541564941406,0.012414932250976562
1772558484937807400,5.171807373046875,-0.04155254364013672,-0.01634073257446289,-0.014355897903442383
1772558484956579800,5.190579833984375,-0.011812210083007812,0.04844951629638672,-0.009461641311645508
1772558484975352300,5.209352294921875,-0.09601688385009766,0.0759897232055664,-0.00046634674072265625
1772558484994124500,5.22812451171875,-0.0035610198974609375,0.10267782211303711,-0.0033664703369140625
1772558485012897000,5.24689697265625,-0.027292251586914062,0.03178596496582031,-0.018373727798461914
1772558485031669200,5.265669189453125,-0.08794212341308594,0.06741523742675781,-0.060808658599853516
1772558485050441700,5.284441650390625,0.025415420532226562,-0.03519248962402344,-0.09952878952026367
1772558485069214000,5.3032138671875,0.2277536392211914,-0.07542800903320312,-0.13915061950683594
1772558485087986400,5.321986328125,0.012655258178710938,-0.08246564865112305,-0.1655135154724121
1772558485106758700,5.340758544921875,-0.17437267303466797,-0.01677703857421875,-0.1538839340209961
1772558485125531100,5.35953125,-0.09465312957763672,-0.012302398681640625,-0.07927703857421875
1772558485144303600,5.3783037109375,0.007940292358398438,-0.028224945068359375,0.015137434005737305
1772558485163075800,5.397075927734375,-0.11061763763427734,0.1054377555847168,0.04531216621398926
1772558485181848300,5.415848388671875,-0.1882467269897461,0.16306829452514648,0.06517434120178223
1772558485200620500,5.43462060546875,-0.09287738800048828,0.14099502563476562,0.07834219932556152
1772558485219393000,5.45339306640625,0.11448097229003906,0.08676385879516602,0.05632472038269043
1772558485238165200,5.472165283203125,0.19836044311523438,0.020863056182861328,0.024732351303100586
1772558485256937700,5.490937744140625,0.14399433135986328,0.057347774505615234,0.01287078857421875
1772558485275710000,5.5097099609375,0.061568260192871094,0.1732316017150879,-0.005747795104980469
1772558485294482400,5.528482421875,-0.020859718322753906,0.1701960563659668,-0.009074926376342773
1772558485313254700,5.547254638671875,-0.05105876922607422,0.0685267448425293,0.014281272888183594
1772558485332027100,5.566027099609375,-0.021114349365234375,0.005345344543457031,0.04601168632507324
1772558485350799600,5.584799560546875,-0.011163711547851562,0.059754371643066406,0.041454315185546875
1772558485369571800,5.60357177734375,-0.06695842742919922,0.1085805892944336,0.011871337890625
1772558485388344300,5.62234423828125,0.06701469421386719,0.09594058990478516,0.02912282943725586
1772558485407116500,5.641116455078125,0.060019493103027344,0.043666839599609375,0.04622983932495117
1772558485425889000,5.659888916015625,-0.10207080841064453,0.031334877014160156,0.023743629455566406
1772558485444661500,5.67866162109375,-0.1210947036743164,-0.0029144287109375,-0.006988048553466797
1772558485463433700,5.697433837890625,-0.06270885467529297,0.008141517639160156,-0.03277730941772461
1772558485482206000,5.7162060546875,0.08782768249511719,0.006825447082519531,0.02518773078918457
1772558485500978400,5.734978515625,0.06552696228027344,0.023425579071044922,0.025649547576904297
1772558485519751000,5.7537509765625,-0.06440448760986328,0.05587053298950195,0.014177560806274414
1772558485538523100,5.772523193359375,-0.031787872314453125,0.06465435028076172,0.04907417297363281
1772558485557295600,5.791295654296875,-0.04364490509033203,0.09914493560791016,0.0742952823638916
1772558485576067800,5.81006787109375,0.04721546173095703,0.14496088027954102,0.13047194480895996
1772558485594840300,5.82884033203125,0.02422332763671875,0.13661479949951172,0.06293320655822754
1772558485613612800,5.84761279296875,0.0506439208984375,0.04610252380371094,-0.004639863967895508
1772558485632385000,5.866385009765625,0.052268028259277344,0.04401445388793945,-0.0575709342956543
1772558485651157500,5.885157470703125,-0.07346248626708984,-0.025700092315673828,-0.10121846199035645
1772558485669929700,5.9039296875,-0.043709754943847656,-0.032557010650634766,-0.06775546073913574
1772558485688702200,5.9227021484375,0.12714767456054688,-0.005743503570556641,-0.014719009399414062
1772558485707474400,5.941474365234375,0.10252666473388672,0.04164457321166992,0.025704622268676758
1772558485726247000,5.960246826171875,-0.11460685729980469,0.08947229385375977,0.013104677200317383
1772558485745019100,5.97901904296875,-0.27213430404663086,0.10695362091064453,-0.014682769775390625
1772558485763791600,5.99779150390625,-0.1257791519165039,0.05919218063354492,-0.010837078094482422
1772558485782564000,6.016564208984375,0.09139728546142578,-0.012357234954833984,0.018192291259765625
1772558485801336300,6.03533642578125,0.10535240173339844,0.016408920288085938,0.014673233032226562
1772558485820108800,6.05410888671875,0.014551162719726562,0.018653392791748047,-0.00987386703491211
1772558485838881000,6.072881103515625,-0.06734085083007812,0.029788494110107422,-0.034929752349853516
1772558485857653500,6.091653564453125,-0.040457725524902344,0.03172159194946289,-0.006770133972167969
1772558485876425700,6.11042578125,0.09386539459228516,0.06583547592163086,0.06357884407043457
1772558485895198200,6.1291982421875,0.09108161926269531,0.10088443756103516,0.10156774520874023
1772558485913970400,6.147970458984375,-0.05906200408935547,0.0905618667602539,0.04021573066711426
1772558485932743000,6.166742919921875,-0.08199691772460938,0.08965492248535156,-0.0009720325469970703
1772558485951515400,6.185515380859375,0.009026527404785156,0.07424211502075195,-0.049054622650146484
1772558485970287600,6.20428759765625,0.14104938507080078,0.0015816688537597656,0.012971639633178711
1772558485989060000,6.22306005859375,-0.037032127380371094,0.06308794021606445,0.03976559638977051
1772558486007832300,6.241832275390625,-0.1888279914855957,0.13767337799072266,0.03563261032104492
1772558486026604800,6.260604736328125,-0.026155471801757812,0.08474016189575195,0.03928518295288086
1772558486045377300,6.279377197265625,0.17835235595703125,0.03338050842285156,0.025354385375976562
1772558486064149500,6.2981494140625,0.09674739837646484,0.0523381233215332,0.006304264068603516
1772558486082922000,6.316921875,-0.06840324401855469,0.11513185501098633,-0.03596091270446777
1772558486101694200,6.335694091796875,-0.03729057312011719,0.09441232681274414,-0.03215980529785156
1772558486120466700,6.354466796875,0.019130706787109375,0.004153251647949219,-0.03692221641540527
1772558486139239000,6.373239013671875,0.04335212707519531,-0.050801753997802734,-0.03270149230957031
1772558486158011400,6.392011474609375,0.1068429946899414,-0.02806234359741211,-0.06380510330200195
1772558486176783600,6.41078369140625,-0.022615432739257812,0.07720756530761719,-0.07406997680664062
1772558486195556000,6.42955615234375,-0.11400508880615234,0.09817695617675781,-0.06571793556213379
1772558486214328600,6.44832861328125,-0.026740074157714844,0.054117679595947266,-0.027207374572753906
1772558486233100800,6.467100830078125,0.07152080535888672,0.01699972152709961,0.016080379486083984
1772558486251873300,6.485873291015625,-0.013998985290527344,0.048563480377197266,-0.003175020217895508
1772558486270645500,6.5046455078125,-0.058490753173828125,0.1216740608215332,-0.016225099563598633
1772558486289418000,6.52341796875,-0.04099273681640625,0.14136600494384766,-0.019381046295166016
1772558486308190500,6.5421904296875,-0.049103736877441406,0.09174346923828125,-0.037683725357055664
1772558486326962700,6.560962646484375,0.011260032653808594,0.03184366226196289,-0.022384166717529297
1772558486345735200,6.579735107421875,0.12766075134277344,0.06204843521118164,-0.0014755725860595703
1772558486364507400,6.59850732421875,0.19469547271728516,0.09265518188476562,-0.0005688667297363281
1772558486383279900,6.61727978515625,0.06659412384033203,0.05585765838623047,0.02366495132446289
1772558486402052000,6.636052001953125,-0.046952247619628906,0.004833221435546875,-0.014526128768920898
1772558486420824600,6.654824462890625,-0.03402519226074219,0.010112285614013672,-0.015420913696289062
1772558486439597000,6.67359716796875,-0.05921173095703125,0.07781076431274414,0.016682147979736328
1772558486458369300,6.692369384765625,-0.10823345184326172,0.09756326675415039,0.032572269439697266
1772558486477141800,6.711141845703125,-0.030298233032226562,0.0050487518310546875,0.0578305721282959
1772558486495914000,6.7299140625,0.009652137756347656,-0.02401256561279297,-0.0061511993408203125
1772558486514686500,6.7486865234375,-0.1013174057006836,0.009548187255859375,-0.004893064498901367
1772558486533458700,6.767458740234375,-0.18515586853027344,0.08078718185424805,-0.010920047760009766
1772558486552231200,6.786231201171875,-0.0674753189086914,0.030963420867919922,0.0018846988677978516
1772558486571003400,6.80500341796875,0.0643625259399414,-0.039136409759521484,0.008706808090209961
1772558486589776000,6.82377587890625,0.05064105987548828,0.0053730010986328125,-0.018151044845581055
1772558486608548400,6.84254833984375,0.01719951629638672,0.07445526123046875,-0.025480031967163086
1772558486627320600,6.861320556640625,-0.014840126037597656,0.13310956954956055,-0.019269704818725586
1772558486646093000,6.880093017578125,0.05134010314941406,0.05168771743774414,-0.005624532699584961
1772558486664865300,6.898865234375,0.00054168701171875,-0.0010900497436523438,-0.028813838958740234
1772558486683637800,6.9176376953125,-0.06290531158447266,0.005971431732177734,-0.03394603729248047
1772558486702410200,6.93641015625,-0.01971912384033203,0.08995628356933594,-0.04298591613769531
1772558486721182500,6.955182373046875,0.015428543090820312,0.06056690216064453,-0.042807579040527344
1772558486739955000,6.973954833984375,0.11614990234375,0.08514785766601562,-0.0018007755279541016
1772558486758727200,6.99272705078125,0.06666278839111328,0.10460710525512695,-0.0009944438934326172
1772558486777499600,7.011499755859375,0.09061622619628906,0.08474922180175781,0.00046253204345703125
1772558486796272000,7.030272216796875,0.039554595947265625,0.1218266487121582,0.014156818389892578
1772558486815044400,7.04904443359375,-0.09851455688476562,0.12888193130493164,-0.01390218734741211
1772558486833816800,7.06781689453125,-0.039231300354003906,0.05716276168823242,0.0047435760498046875
1772558486852589000,7.086589111328125,0.0833139419555664,0.007621288299560547,-0.005515098571777344
1772558486871361500,7.105361572265625,0.05112266540527344,0.044251441955566406,0.00435185432434082
1772558486890133800,7.1241337890625,-0.17658138275146484,0.16590499877929688,0.0011568069458007812
1772558486908906200,7.14290625,-0.20277833938598633,0.18728971481323242,-0.006418943405151367
1772558486927678700,7.1616787109375,-0.0018491744995117188,0.08900785446166992,0.03833484649658203
1772558486946451000,7.180450927734375,0.2187967300415039,-0.008617401123046875,0.019063949584960938
1772558486965223400,7.199223388671875,0.16444110870361328,-0.03767538070678711,-0.03801846504211426
1772558486983995600,7.21799560546875,0.0032291412353515625,0.04720163345336914,-0.06844925880432129
1772558487002768100,7.23676806640625,0.02652263641357422,0.09650850296020508,-0.04613804817199707
1772558487021540600,7.25554052734375,0.12808704376220703,0.0402679443359375,0.025296449661254883
1772558487040312800,7.274312744140625,-0.006930351257324219,0.011100292205810547,0.03263401985168457
1772558487059085300,7.293085205078125,-0.12110042572021484,-0.004113197326660156,0.0020608901977539062
1772558487077857500,7.311857421875,-0.10773849487304688,0.03270101547241211,-0.012429952621459961
1772558487096630000,7.330630126953125,-0.06467819213867188,0.030694961547851562,0.007728099822998047
1772558487115402500,7.349402587890625,-0.1153554916381836,-0.005612373352050781,-0.013032674789428711
1772558487134174700,7.3681748046875,-0.14294719696044922,-0.03447866439819336,-0.029166221618652344
1772558487152947200,7.386947265625,-0.09025192260742188,-0.0343475341796875,-0.012121438980102539
1772558487171719400,7.405719482421875,-0.0017213821411132812,0.01730203628540039,0.005543708801269531
1772558487190492000,7.424491943359375,0.11328697204589844,-0.005976200103759766,0.012653589248657227
1772558487209264000,7.44326416015625,0.14962482452392578,-0.022814273834228516,0.024095773696899414
1772558487228036600,7.46203662109375,-0.021544456481933594,0.0478663444519043,-0.010996580123901367
1772558487246809000,7.48080908203125,-0.1040353775024414,0.07216453552246094,-0.0059087276458740234
1772558487265581300,7.499581298828125,-0.04306507110595703,-0.005743503570556641,0.014112234115600586
1772558487284353800,7.518353759765625,-0.07362174987792969,-0.02801370620727539,0.02530670166015625
1772558487303126000,7.5371259765625,-0.1367197036743164,0.09899330139160156,0.02864670753479004
1772558487321898500,7.5558984375,-0.14180850982666016,0.11334085464477539,0.04128766059875488
1772558487340671000,7.5746708984375,0.0010175704956054688,0.10038375854492188,0.03139162063598633
1772558487359443200,7.593443115234375,0.026108741760253906,0.02657175064086914,-0.010822057723999023
1772558487378215700,7.612215576171875,0.06656551361083984,0.017710208892822266,-0.030370473861694336
1772558487396988000,7.63098779296875,0.09391117095947266,0.06669998168945312,-0.023761749267578125
1772558487415760400,7.649760498046875,-0.010308265686035156,0.14881420135498047,-0.03947591781616211
1772558487434532900,7.668532958984375,-0.048560142517089844,0.15474939346313477,-0.044034481048583984
1772558487453305000,7.68730517578125,0.09632110595703125,0.16045808792114258,-0.05055856704711914
1772558487472077600,7.70607763671875,0.4291849136352539,0.0648045539855957,-0.004492998123168945
1772558487490849800,7.724849853515625,0.23137760162353516,0.02627706527709961,-0.0010063648223876953
1772558487509622300,7.743622314453125,-0.07165908813476562,0.11571836471557617,-0.008481740951538086
1772558487528394500,7.76239453125,-0.08517265319824219,0.12026119232177734,0.005716562271118164
1772558487547167000,7.7811669921875,-0.03215789794921875,0.005581378936767578,0.031569719314575195
1772558487565939500,7.799939453125,-0.06471729278564453,-0.01577615737915039,0.038982391357421875
1772558487584711700,7.818711669921875,-0.058426856994628906,0.015498638153076172,0.02839827537536621
1772558487603484200,7.837484130859375,-0.16155052185058594,0.028518199920654297,0.007833242416381836
1772558487622256400,7.85625634765625,-0.3229866027832031,0.008916854858398438,-0.012997627258300781
1772558487641028900,7.87502880859375,-0.20810556411743164,0.02505016326904297,-0.03173041343688965
1772558487659801300,7.89380126953125,-0.08152484893798828,-0.1373581886291504,-0.07539677619934082
1772558487678573600,7.912573486328125,0.11046218872070312,-0.18080949783325195,-0.08954000473022461
1772558487697346000,7.931345947265625,0.09255695343017578,-0.04494428634643555,-0.03289079666137695
1772558487716118300,7.9501181640625,-0.1352977752685547,0.052079200744628906,-0.026929140090942383
1772558487734890800,7.968890869140625,0.05484199523925781,0.1479053497314453,0.04866337776184082
1772558487753663200,7.987663330078125,0.16839885711669922,0.16370058059692383,0.10805392265319824
1772558487772435500,8.006435546875,0.07611465454101562,0.1488809585571289,0.14288735389709473
1772558487791208000,8.0252080078125,-0.11447525024414062,0.10899925231933594,0.07325315475463867
1772558487809980200,8.043980224609374,-0.08310413360595703,0.09621667861938477,-0.013149738311767578
1772558487828752600,8.062752685546876,0.08765697479248047,0.04599761962890625,-0.04100632667541504
1772558487847525000,8.081525146484376,0.08053016662597656,0.0007681846618652344,-0.04959917068481445
1772558487866297300,8.10029736328125,-0.011121749877929688,-0.02906656265258789,-0.06386089324951172
1772558487885069800,8.11906982421875,0.03261280059814453,0.019272804260253906,-0.0282437801361084
1772558487903842000,8.137842041015626,0.0024852752685546875,0.17567968368530273,0.017138957977294922
1772558487922614500,8.156614501953126,-0.0064640045166015625,0.2741360664367676,0.07925677299499512
1772558487941387000,8.175386962890625,0.013868331909179688,0.17608261108398438,0.07319068908691406
1772558487960159200,8.1941591796875,0.059571266174316406,0.01829242706298828,-0.003826141357421875
1772558487978931700,8.212931640625,0.09463691711425781,-0.007778167724609375,-0.047399044036865234
1772558487997704000,8.231703857421875,0.0024433135986328125,0.04972267150878906,-0.07567811012268066
1772558488016476400,8.250476318359375,-0.012980461120605469,0.05497932434082031,-0.07953262329101562
1772558488035249000,8.269248779296875,-0.021187782287597656,0.04187154769897461,-0.04677438735961914
1772558488054021000,8.288021240234375,-0.03035449981689453,0.0931854248046875,-0.014552116394042969
1772558488072793600,8.306793701171875,-0.05990886688232422,0.06621360778808594,-0.00864720344543457
1772558488091565800,8.32556591796875,-0.0204315185546875,0.049868106842041016,-0.023726701736450195
1772558488110338300,8.34433837890625,0.03789710998535156,0.06772089004516602,-0.0287172794342041
1772558488129110500,8.363110595703125,0.1042165756225586,0.0717782974243164,-0.0169527530670166
1772558488147883000,8.381883056640625,-0.011310577392578125,0.007137298583984375,-0.030010461807250977
1772558488166655500,8.400655517578125,-0.07642459869384766,0.003807544708251953,-0.05236530303955078
1772558488185427700,8.419427734375,-0.09100914001464844,-0.003643035888671875,-0.0687713623046875
1772558488204200200,8.4382001953125,0.040386199951171875,-0.010394573211669922,-0.01678633689880371
1772558488222972700,8.45697265625,-0.06439876556396484,0.01212310791015625,-0.003488302230834961
1772558488241745000,8.475744873046875,0.06467723846435547,0.06380987167358398,0.030640840530395508
1772558488260517400,8.494517333984374,-0.09109973907470703,0.04764747619628906,0.006274223327636719
1772558488279289600,8.51328955078125,-0.1116342544555664,0.05304670333862305,-0.003914833068847656
1772558488298062000,8.53206201171875,0.3560657501220703,0.0782928466796875,0.08579182624816895
1772558488316834600,8.55083447265625,-0.1297588348388672,0.055060386657714844,0.06366634368896484
1772558488335606800,8.569606689453124,-0.26122570037841797,0.10128545761108398,-0.0039288997650146484
1772558488354379300,8.588379150390624,0.2613372802734375,-0.04923677444458008,-0.006867170333862305
1772558488373151500,8.6071513671875,-0.08514976501464844,-0.03737163543701172,-0.058329105377197266
1772558488391924000,8.625924072265626,-0.0971231460571289,0.02379608154296875,-0.023823022842407227
1772558488410696400,8.644696533203126,0.15073871612548828,-0.01692056655883789,0.021128177642822266
1772558488429468700,8.66346875,-0.1292400360107422,0.08249235153198242,0.04569554328918457
1772558488448241200,8.6822412109375,0.013643264770507812,0.07466936111450195,0.03252816200256348
1772558488467013400,8.701013427734376,-0.011944770812988281,0.007061958312988281,-0.0054204463958740234
1772558488485785900,8.719785888671876,-0.041916847229003906,0.02407073974609375,-0.0301663875579834
1772558488504558300,8.738558349609375,0.018741607666015625,0.06428813934326172,-0.022498130798339844
1772558488523330600,8.75733056640625,0.010327339172363281,0.002326488494873047,0.0213167667388916
1772558488542103000,8.77610302734375,-0.04987907409667969,0.0617833137512207,0.0193326473236084
1772558488560875500,8.79487548828125,-0.11532974243164062,0.10878658294677734,-0.006804227828979492
1772558488579647700,8.813647705078125,-0.059098243713378906,0.061783790588378906,-0.004498481750488281
1772558488598420200,8.832420166015625,0.1356639862060547,0.025597095489501953,-0.00595855712890625
1772558488617192400,8.8511923828125,0.11011791229248047,0.003810882568359375,-0.010006904602050781
1772558488635965000,8.86996484375,0.035981178283691406,0.0923776626586914,-0.0025997161865234375
1772558488654737200,8.888737060546875,0.010960578918457031,0.10302925109863281,0.007721900939941406
1772558488673509600,8.907509521484375,-0.07593154907226562,0.1790766716003418,0.0198519229888916
1772558488692282000,8.9262822265625,-0.08028507232666016,0.23732566833496094,0.0582880973815918
1772558488711054300,8.945054443359375,0.0512237548828125,0.1245737075805664,0.07754063606262207
1772558488729826800,8.963826904296875,0.18500709533691406,0.039302825927734375,0.03196835517883301
1772558488748599300,8.982599365234375,0.11095809936523438,0.021975994110107422,-0.014204263687133789
1772558488767371500,9.00137158203125,-0.09162044525146484,0.048227787017822266,-0.05685067176818848
1772558488786144000,9.02014404296875,-0.10225391387939453,0.027989864349365234,-0.06652688980102539
1772558488804916200,9.038916259765625,0.05346488952636719,-0.01830434799194336,-0.006788969039916992
1772558488823688700,9.057688720703124,0.10706710815429688,-0.013302803039550781,0.035237789154052734
1772558488842461200,9.076461181640624,-0.11213302612304688,0.036830902099609375,0.008730411529541016
1772558488861233400,9.0952333984375,-0.17781591415405273,0.11268043518066406,-0.01623249053955078
1772558488880006000,9.114005859375,-0.1396007537841797,0.12293052673339844,-0.01855301856994629
1772558488898778400,9.1327783203125,0.04329490661621094,0.008797645568847656,0.00581049919128418
1772558488917550600,9.151550537109374,0.1373291015625,-0.07731771469116211,0.0032706260681152344
1772558488936323000,9.170322998046874,-0.06966114044189453,-0.022239208221435547,-0.04432415962219238
1772558488955095300,9.18909521484375,-0.04145050048828125,0.010545730590820312,-0.08375334739685059
1772558488973867800,9.20786767578125,0.013601303100585938,-0.009252071380615234,-0.09029912948608398
1772558488992640300,9.22664013671875,-0.05522346496582031,0.009136199951171875,-0.046915531158447266
1772558489011412500,9.24541259765625,0.00557708740234375,0.022678375244140625,0.024309873580932617
1772558489030185000,9.26418505859375,0.06813430786132812,0.034613609313964844,0.06244039535522461
1772558489048957400,9.28295751953125,-0.093170166015625,0.08368444442749023,0.0491940975189209
1772558489067729700,9.301729736328125,-0.0817708969116211,0.12189722061157227,-0.0019114017486572266
1772558489086502100,9.320502197265625,0.00867462158203125,-0.011304378509521484,-0.03197908401489258
1772558489105274400,9.3392744140625,0.05864715576171875,-0.05480480194091797,-0.050116777420043945
1772558489124046800,9.358046875,-0.08036518096923828,0.03170156478881836,-0.03630852699279785
1772558489142819300,9.3768193359375,-0.1175088882446289,0.11449623107910156,0.009962081909179688
1772558489161591600,9.395591552734375,-0.07951068878173828,0.16169261932373047,0.031777381896972656
1772558489180364000,9.414364013671875,0.014398574829101562,0.10830163955688477,0.03480267524719238
1772558489199136500,9.433136474609375,0.2619619369506836,0.043570518493652344,0.06255078315734863
1772558489217908700,9.45190869140625,0.14574813842773438,0.042662620544433594,0.02480316162109375
1772558489236681200,9.47068115234375,-0.20303773880004883,0.10064125061035156,-0.030982494354248047
1772558489255453700,9.48945361328125,-0.21049928665161133,0.07306671142578125,-0.0647423267364502
1772558489274226000,9.508225830078125,0.10242176055908203,-0.02494335174560547,-0.0376279354095459
1772558489292998400,9.526998291015625,0.2551441192626953,-0.014900684356689453,0.027784347534179688
1772558489311770600,9.5457705078125,-0.0039520263671875,0.08102178573608398,0.015321493148803711
1772558489330543000,9.564543212890625,-0.20560836791992188,0.16022539138793945,-0.03982853889465332
1772558489349315600,9.583315673828125,0.02707195281982422,0.10474443435668945,-0.005604982376098633
1772558489368087800,9.602087890625,0.1486988067626953,0.005388736724853516,0.028525114059448242
1772558489386860300,9.6208603515625,0.04390525817871094,0.01712322235107422,0.04412126541137695
1772558489405632500,9.639632568359374,-0.1318521499633789,0.09723997116088867,-0.007059812545776367
1772558489424405000,9.658405029296874,-0.18036317825317383,0.16988515853881836,-0.02529144287109375
1772558489443177500,9.677177490234374,0.05183601379394531,0.055615901947021484,-0.023878812789916992
1772558489461949700,9.69594970703125,0.1813192367553711,-0.10349845886230469,0.038407325744628906
1772558489480722200,9.71472216796875,-0.0047588348388671875,-0.030635833740234375,-0.016869783401489258
1772558489499494700,9.73349462890625,-0.17229604721069336,0.02885913848876953,-0.07552981376647949
1772558489518267100,9.75226708984375,-0.21482419967651367,-0.02591562271118164,-0.1386265754699707
1772558489537039400,9.771039306640626,0.05523109436035156,-0.10292482376098633,-0.025974512100219727
1772558489555811800,9.789811767578126,0.16982269287109375,0.031355857849121094,-0.0017833709716796875
1772558489574584000,9.808583984375,0.025526046752929688,-0.037909507751464844,0.06813716888427734
1772558489593356500,9.8273564453125,-0.31792449951171875,0.07291841506958008,-0.0610501766204834
1772558489612129000,9.84612890625,-0.16607952117919922,0.035437583923339844,-0.05662369728088379
1772558489630901200,9.8649013671875,-0.08044242858886719,-0.059813499450683594,-0.03981757164001465
1772558489649673700,9.883673828125,-0.036210060119628906,-0.07351350784301758,0.0006663799285888672
1772558489668446200,9.9024462890625,0.15822601318359375,-0.010485172271728516,0.009571552276611328
1772558489687218400,9.921218505859375,0.12572002410888672,0.0889735221862793,-0.026861906051635742
1772558489705991000,9.939990966796875,0.09117317199707031,0.18185806274414062,0.016584157943725586
1772558489724763100,9.95876318359375,0.07052803039550781,0.22382497787475586,0.05672097206115723
1772558489743535600,9.97753564453125,0.08382511138916016,0.17844390869140625,0.12126994132995605
1772558489762308000,9.99630810546875,-0.011227607727050781,0.17177152633666992,0.08707237243652344
1772558489781080300,10.015080322265625,-0.12691783905029297,0.02080678939819336,0.06039309501647949
