time,seconds_elapsed,z,y,x
1772558479943358200,0.177358154296875,0.018936265259981155,-0.014202198944985867,-0.00992626789957285
1772558479962130400,0.19613037109375,-0.010231691412627697,-0.005803049076348543,0.016492875292897224
1772558479980902700,0.214902587890625,-0.03161134570837021,-0.007330167107284069,0.03390202298760414
1772558479999675100,0.233675048828125,-0.032222192734479904,-0.02076880633831024,0.029778804630041122
1772558480018447400,0.252447265625,-0.025502873584628105,-0.02229592576622963,0.010078979656100273
1772558480037219800,0.2712197265625,-0.013896775431931019,-0.023059483617544174,0.007024743594229221
1772558480055992000,0.289991943359375,0.00992626789957285,-0.04031591862440109,0.027793550863862038
1772558480074764500,0.3087646484375,0.009315420873463154,-0.020616095513105392,0.0390942245721817
1772558480093536800,0.327536865234375,0.01954711228609085,-0.00259610079228878,0.02764083817601204
1772558480112309000,0.34630908203125,0.021532366052269936,-0.036039989441633224,0.025808297097682953
1772558480131081500,0.36508154296875,0.01038440316915512,0.003970507066696882,0.01817270554602146
1772558480149853700,0.383853759765625,0.016034740954637527,-0.022754060104489326,0.02244863659143448
1772558480168626200,0.402626220703125,0.025808297097682953,-0.07360709458589554,-0.0032069480512291193
1772558480187398400,0.4213984375,0.021379653364419937,-0.009009997360408306,-0.036039989441633224
1772558480206171000,0.4401708984375,0.009773556143045425,0.00030542362947016954,0.012675080448389053
1772558480224943000,0.458943115234375,0.009773556143045425,0.016798298805952072,0.026571854948997498
1772558480243715300,0.47771533203125,0.00992626789957285,-0.014049487188458443,0.03771981969475746
1772558480262487800,0.49648779296875,0.02504473738372326,-0.0456608310341835,-0.00259610079228878
1772558480281260000,0.515260009765625,0.010995250195264816,0.02076880633831024,-0.0328330397605896
1772558480300032500,0.534032470703125,-0.013438640162348747,0.03817795217037201,0.026877280324697495
1772558480318804700,0.5528046875,-0.007788302376866341,-0.013896775431931019,0.04337015375494957
1772558480337577200,0.5715771484375,-0.007788302376866341,-0.028557108715176582,-0.004123218823224306
1772558480356349400,0.590349365234375,-0.009773556143045425,0.010537114925682545,-0.028251685202121735
1772558480375122000,0.609121826171875,0.009773556143045425,0.019394399598240852,-0.011147962883114815
1772558480393894100,0.62789404296875,0.014660334214568138,-0.0006108472589403391,0.03374931216239929
1772558480412666400,0.646666259765625,0.011606098152697086,0.006413896102458239,0.021837789565324783
1772558480431438800,0.66543896484375,0.016492875292897224,-0.00992626789957285,-0.007482878863811493
1772558480450211000,0.684211181640625,0.010537114925682545,-0.02993151545524597,-0.004123218823224306
1772558480468983600,0.702983642578125,0.011606098152697086,-0.009773556143045425,-0.00259610079228878
1772558480487755800,0.721755859375,0.004275931045413017,0.016340164467692375,-0.007941014133393764
1772558480506528000,0.740528076171875,-0.013438640162348747,0.027793550863862038,-0.01252236869186163
1772558480525300500,0.759300537109375,-0.016340164467692375,0.002748812548816204,-0.01832541823387146
1772558480544072700,0.77807275390625,-0.0016798300202935934,-0.02504473738372326,-0.007941014133393764
1772558480562845200,0.79684521484375,0.015271181240677834,-0.02748812735080719,-0.004123218823224306
1772558480581617400,0.815617431640625,0.013438640162348747,0.001985253533348441,0.014507622458040714
1772558480600390000,0.834389892578125,0.010995250195264816,0.01435491070151329,0.02107422985136509
1772558480619162000,0.853162109375,0.004886778071522713,-0.012064233422279358,0.007330167107284069
1772558480637934300,0.871934326171875,-0.009620844386518002,-0.021532366052269936,-0.01969982497394085
1772558480656706800,0.890706787109375,-0.027946261689066887,0.00992626789957285,-0.025197450071573257
1772558480675479000,0.90947900390625,-0.021837789565324783,0.006108472589403391,0.00030542362947016954
1772558480694251500,0.92825146484375,-0.005344913341104984,-0.012064233422279358,0.010995250195264816
1772558480713023700,0.947023681640625,-0.010231691412627697,0.023823043331503868,0.008551862090826035
1772558480731796200,0.965796142578125,-0.01695101149380207,0.013133215717971325,0.021837789565324783
1772558480750568400,0.984568359375,-0.010842538438737392,-0.004734066314995289,0.0065666078589856625
1772558480769341000,1.0033408203125,-0.008399149402976036,-0.021990500390529633,-0.007941014133393764
1772558480788113200,1.022113037109375,-0.020005248486995697,0.00992626789957285,-0.02901524491608143
1772558480806885400,1.040885498046875,-0.01588202826678753,0.046424392610788345,-0.029626091942191124
1772558480825657900,1.059657958984375,-0.012827792204916477,0.03771981969475746,-0.004734066314995289
1772558480844430000,1.07843017578125,-0.01817270554602146,0.012675080448389053,0.031153209507465363
1772558480863202600,1.09720263671875,-0.0022906772792339325,-0.011300674639642239,0.010995250195264816
1772558480881974800,1.115974853515625,0.005497625097632408,-0.00992626789957285,-0.015576604753732681
1772558480900747300,1.134747314453125,0.0006108472589403391,0.019241688773036003,-0.01175880990922451
1772558480919519500,1.15351953125,-0.013438640162348747,0.03955236077308655,0.002748812548816204
1772558480938291700,1.172291748046875,-0.01695101149380207,0.013591351918876171,0.01252236869186163
1772558480957064200,1.191064208984375,-0.0261137206107378,-0.00916270911693573,-0.009468132629990578
1772558480975836400,1.20983642578125,-0.024281177669763565,-0.012675080448389053,-0.031000498682260513
1772558480994609000,1.22860888671875,-0.01817270554602146,-0.00916270911693573,-0.03665083646774292
1772558481013381000,1.247381103515625,-0.011453386396169662,-0.006413896102458239,-0.02626643143594265
1772558481032153600,1.266153564453125,-0.01817270554602146,0.016187451779842377,-0.0198525357991457
1772558481050925800,1.28492578125,-0.01511846948415041,0.01695101149380207,-0.007330167107284069
1772558481069698000,1.303697998046875,-0.007788302376866341,0.0038177953101694584,0.012064233422279358
1772558481088470500,1.322470458984375,-0.004123218823224306,0.004123218823224306,0.026877280324697495
1772558481107242800,1.34124267578125,0.0018325417768210173,0.016187451779842377,0.022906772792339325
1772558481126015200,1.36001513671875,-0.007330167107284069,0.04993676394224167,0.006261184345930815
1772558481144787500,1.378787353515625,-0.008399149402976036,0.008857285603880882,0.017561858519911766
1772558481163560000,1.397559814453125,-0.0065666078589856625,0.0022906772792339325,-0.007788302376866341
1772558481182332200,1.416332275390625,-0.008399149402976036,0.01725643500685692,0.008704573847353458
1772558481201104400,1.4351044921875,-0.0004581354442052543,-0.023975754156708717,0.020616095513105392
1772558481219876900,1.453876953125,-0.010231691412627697,0.016492875292897224,0.0006108472589403391
1772558481238649000,1.472649169921875,-0.012216945178806782,0.029320668429136276,0.007941014133393764
1772558481257421600,1.491421630859375,-0.013896775431931019,0,0.03436015918850899
1772558481276193800,1.51019384765625,-0.026724567636847496,-0.021226942539215088,0.036039989441633224
1772558481294966300,1.52896630859375,-0.03527642786502838,0.026724567636847496,-0.005650337319821119
1772558481313738500,1.547738525390625,-0.03588727489113808,0.0456608310341835,-0.0010689827613532543
1772558481332511000,1.566510986328125,-0.02489202655851841,0.010689826682209969,0.014965757727622986
1772558481351283200,1.585283203125,-0.02489202655851841,-0.005344913341104984,0.01038440316915512
1772558481370055400,1.604055419921875,-0.013896775431931019,-0.00519220158457756,-0.019394399598240852
1772558481388828000,1.622827880859375,0.0018325417768210173,-0.009468132629990578,-0.024281177669763565
1772558481407600000,1.64160009765625,0.0018325417768210173,0.004123218823224306,-0.005344913341104984
1772558481426372600,1.66037255859375,0.007941014133393764,0.002748812548816204,0.01572931744158268
1772558481445144800,1.679144775390625,-0.0006108472589403391,0.019088976085186005,0.010537114925682545
1772558481463917300,1.697917236328125,-0.0036650835536420345,0.012827792204916477,0.005650337319821119
1772558481482689500,1.716689453125,0,-0.005497625097632408,0.0016798300202935934
1772558481501462000,1.7354619140625,-0.0018325417768210173,-0.009773556143045425,-0.001985253533348441
1772558481520234200,1.754234130859375,0.011606098152697086,0.02351761981844902,-0.013744063675403595
1772558481539006700,1.7730068359375,0.007941014133393764,0.007177455350756645,-0.005344913341104984
1772558481557779000,1.791779052734375,0.007482878863811493,-0.020463382825255394,0.007482878863811493
1772558481576551200,1.81055126953125,0.013591351918876171,-0.042606595903635025,-0.0032069480512291193
1772558481595323600,1.82932373046875,0.028098974376916885,0.00015271181473508477,-0.03008422814309597
1772558481614096000,1.848095947265625,0.01588202826678753,0.037414394319057465,-0.01832541823387146
1772558481632868400,1.866868408203125,-0.0029015245381742716,-0.005344913341104984,0.042453885078430176
1772558481651640600,1.885640625,-0.01695101149380207,-0.011453386396169662,0.03955236077308655
1772558481670413000,1.9044130859375,-0.012216945178806782,0.03588727489113808,-0.004734066314995289
1772558481689185300,1.923185302734375,-0.005497625097632408,0.03955236077308655,0.001985253533348441
1772558481707957800,1.941957763671875,-0.0022906772792339325,0.011300674639642239,0.021226942539215088
1772558481726730000,1.96072998046875,-0.0036650835536420345,0.009620844386518002,-0.0065666078589856625
1772558481745502200,1.979502197265625,0.011606098152697086,0.029626091942191124,-0.05528167635202408
1772558481764274700,1.998274658203125,0.03237490355968475,0.01511846948415041,-0.04947862774133682
1772558481783047000,2.017046875,0.030542362481355667,-0.011300674639642239,0.01175880990922451
1772558481801819400,2.0358193359375,0.025655584409832954,-0.006413896102458239,0.012216945178806782
1772558481820591600,2.054591552734375,0.03665083646774292,0.0024433890357613564,-0.036192700266838074
1772558481839364000,2.073364013671875,0.031153209507465363,-0.011147962883114815,-0.049020491540431976
1772558481858136300,2.09213623046875,0.021990500390529633,-0.031916771084070206,-0.016340164467692375
1772558481876908800,2.11090869140625,0.01175880990922451,-0.025961007922887802,0.011300674639642239
1772558481895681000,2.129680908203125,0.006719320081174374,0.016492875292897224,0.001374406274408102
1772558481914453500,2.14845361328125,0.009773556143045425,0.0050394898280501366,0.009468132629990578
1772558481933225700,2.167225830078125,0.023975754156708717,-0.04459185153245926,0.025961007922887802
1772558481951998200,2.185998291015625,0.014813045971095562,-0.03695625811815262,0.0065666078589856625
1772558481970770400,2.2047705078125,0.0390942245721817,-0.018936265259981155,-0.006108472589403391
1772558481989542700,2.223542724609375,0.02870982140302658,-0.0009162708884105086,0.013896775431931019
1772558482008315100,2.242315185546875,0.0032069480512291193,-0.01725643500685692,0.02473931387066841
1772558482027087400,2.26108740234375,-0.014507622458040714,-0.029473381116986275,-0.014507622458040714
1772558482045859800,2.27985986328125,-0.012827792204916477,-0.02229592576622963,-0.06734590977430344
1772558482064632000,2.298632080078125,-0.0036650835536420345,-0.013133215717971325,-0.059557609260082245
1772558482083404500,2.317404541015625,-0.009009997360408306,-0.020310672000050545,-0.01725643500685692
1772558482102176800,2.3361767578125,-0.023059483617544174,0.013896775431931019,0.03298575058579445
1772558482120949200,2.35494921875,-0.023059483617544174,0,0.03497100621461868
1772558482139721500,2.373721435546875,-0.021226942539215088,0.0015271181473508477,0.01817270554602146
1772558482158494000,2.392493896484375,-0.024281177669763565,-0.004581354558467865,0.013438640162348747
1772558482177266200,2.41126611328125,-0.021226942539215088,0.008093725889921188,0.014507622458040714
1772558482196038400,2.430038330078125,-0.03161134570837021,0.025197450071573257,0.05375456064939499
1772558482214811000,2.448810791015625,-0.020616095513105392,0.019088976085186005,0.046424392610788345
1772558482233583000,2.4675830078125,-0.009009997360408306,-0.013133215717971325,0.01725643500685692
1772558482252355600,2.48635546875,-0.013896775431931019,-0.02993151545524597,-0.012675080448389053
1772558482271127800,2.5051279296875,-0.011453386396169662,-0.01435491070151329,-0.021685076877474785
1772558482289900300,2.523900390625,0.0012216945178806782,0.031916771084070206,-0.021226942539215088
1772558482308672500,2.542672607421875,0.01038440316915512,0.03680354729294777,0.016340164467692375
1772558482327445000,2.561445068359375,0.0038177953101694584,-0.003970507066696882,0.056808795779943466
1772558482346217200,2.58021728515625,-0.0022906772792339325,-0.01710372418165207,0.034665580838918686
1772558482364989700,2.59898974609375,-0.0018325417768210173,0.018019994720816612,-0.012980503961443901
1772558482383762000,2.617761962890625,0.0018325417768210173,0.05604523420333862,-0.029167955741286278
1772558482402534400,2.636534423828125,-0.007941014133393764,0.03420744836330414,0.005803049076348543
1772558482421306600,2.655306640625,-0.0022906772792339325,-0.015576604753732681,0.018019994720816612
1772558482440079000,2.6740791015625,0.006261184345930815,-0.03268032893538475,0.010231691412627697
1772558482458851300,2.692851318359375,0.008551862090826035,0.012827792204916477,0
1772558482477623600,2.71162353515625,0.006108472589403391,0.0584886260330677,0.007941014133393764
1772558482496396000,2.73039599609375,-0.007330167107284069,0.05925218388438225,0.012216945178806782
1772558482515168300,2.749168212890625,-0.004734066314995289,-0.006261184345930815,-0.007635590620338917
1772558482533940700,2.767940673828125,0.007941014133393764,-0.02229592576622963,-0.029626091942191124
1772558482552713200,2.786713134765625,0,0.014202198944985867,-0.02214321307837963
1772558482571485400,2.8054853515625,-0.013438640162348747,0.036192700266838074,0.01710372418165207
1772558482590257700,2.824257568359375,-0.014507622458040714,0.007024743594229221,0.02244863659143448
1772558482609030100,2.843030029296875,-0.005497625097632408,-0.01511846948415041,-0.0328330397605896
1772558482627802400,2.86180224609375,0.011606098152697086,-0.016187451779842377,-0.06444438546895981
1772558482646574800,2.880574951171875,0.010995250195264816,0.011147962883114815,-0.030847785994410515
1772558482665347000,2.89934716796875,0.009773556143045425,0.04367557913064957,0.02489202655851841
1772558482684119600,2.91811962890625,-0.0004581354442052543,0.029473381116986275,0.05360184609889984
1772558482702891800,2.936891845703125,-0.0022906772792339325,-0.02764083817601204,0.01695101149380207
1772558482721664300,2.955664306640625,0,-0.026877280324697495,-0.04932591691613197
1772558482740436500,2.9744365234375,-0.008551862090826035,0.01725643500685692,-0.06444438546895981
1772558482759209000,2.993208984375,-0.014660334214568138,0.034665580838918686,-0.003970507066696882
1772558482777981200,3.011981201171875,-0.008399149402976036,-0.001985253533348441,0.030695075169205666
1772558482796753700,3.030753662109375,0.00259610079228878,-0.030847785994410515,0.009009997360408306
1772558482815526000,3.04952587890625,0.006108472589403391,-0.018630841746926308,-0.021532366052269936
1772558482834298400,3.06829833984375,-0.004886778071522713,0.022754060104489326,-0.0198525357991457
1772558482853070600,3.087070556640625,-0.012827792204916477,0.02367033064365387,-0.0038177953101694584
1772558482871843000,3.105843017578125,-0.013896775431931019,-0.011911521665751934,0.00992626789957285
1772558482890615300,3.124615234375,-0.014507622458040714,-0.016798298805952072,0.012980503961443901
1772558482909387800,3.1433876953125,-0.012675080448389053,0.007941014133393764,-0.0022906772792339325
1772558482928160000,3.162159912109375,-0.012216945178806782,0.0198525357991457,-0.00992626789957285
1772558482946932500,3.180932373046875,-0.010231691412627697,0.007788302376866341,-0.008551862090826035
1772558482965704700,3.19970458984375,0.0006108472589403391,-0.006108472589403391,-0.006413896102458239
1772558482984477200,3.218477294921875,0.008704573847353458,-0.026571854948997498,0.011453386396169662
1772558483003249400,3.23724951171875,0.00015271181473508477,-0.016034740954637527,0.02733541466295719
1772558483022021600,3.256021728515625,-0.009009997360408306,0.014202198944985867,0.010537114925682545
1772558483040794000,3.274794189453125,-0.00916270911693573,0.023059483617544174,-0.005650337319821119
1772558483059566300,3.29356640625,-0.024281177669763565,-0.008399149402976036,0.0010689827613532543
1772558483078338800,3.3123388671875,-0.04077405482530594,-0.016187451779842377,0.013591351918876171
1772558483097111300,3.331111328125,-0.04810422286391258,0.031153209507465363,-0.0009162708884105086
1772558483115883500,3.349883544921875,-0.025502873584628105,0.04932591691613197,-0.0036650835536420345
1772558483134655700,3.36865576171875,-0.0004581354442052543,-0.005650337319821119,0.022754060104489326
1772558483153428200,3.38742822265625,0.004428642801940441,-0.01588202826678753,0.03161134570837021
1772558483172200400,3.406200439453125,0.007941014133393764,0.00519220158457756,0.023823043331503868
1772558483190973000,3.424972900390625,0.006261184345930815,-0.0038177953101694584,0.029473381116986275
1772558483209745200,3.4437451171875,-0.0065666078589856625,-0.0038177953101694584,0.021532366052269936
1772558483228517600,3.462517578125,-0.012827792204916477,0.009468132629990578,-0.02214321307837963
1772558483247289900,3.481289794921875,-0.005497625097632408,0.004886778071522713,-0.040010496973991394
1772558483266062300,3.500062255859375,-0.011606098152697086,0.0022906772792339325,-0.010231691412627697
1772558483284834600,3.51883447265625,-0.013285927474498749,-0.0038177953101694584,0.022754060104489326
1772558483303607000,3.53760693359375,-0.004734066314995289,-0.01435491070151329,0.016034740954637527
1772558483322379300,3.556379150390625,0.0012216945178806782,-0.02764083817601204,-0.01954711228609085
1772558483341151700,3.57515185546875,-0.0012216945178806782,-0.036039989441633224,-0.04611896723508835
1772558483359924000,3.593924072265625,-0.013285927474498749,-0.02626643143594265,-0.04504998400807381
1772558483378696400,3.612696533203125,-0.02733541466295719,0.024281177669763565,-0.007635590620338917
1772558483397468700,3.63146875,-0.020616095513105392,0.03176405653357506,0.042453885078430176
1772558483416241200,3.6502412109375,-0.004734066314995289,0.008399149402976036,0.06520794332027435
1772558483435013400,3.669013427734375,0.001985253533348441,0,0.03634541109204292
1772558483453785900,3.687785888671875,0.014049487188458443,0.017714571207761765,0.0024433890357613564
1772558483472558000,3.70655810546875,0.023823043331503868,0.0065666078589856625,0.022601349279284477
1772558483491330600,3.72533056640625,0.024586603045463562,-0.014202198944985867,0.06261184066534042
1772558483510102800,3.744102783203125,0.01847812905907631,-0.012369656935334206,0.058183200657367706
1772558483528875300,3.762875244140625,0.009773556143045425,0.010231691412627697,0.025502873584628105
1772558483547647500,3.7816474609375,0.00916270911693573,0.014813045971095562,0.011300674639642239
1772558483566420000,3.800419921875,0.009315420873463154,-0.037414394319057465,0.02092151902616024
1772558483585192200,3.819192138671875,0.01175880990922451,-0.062153708189725876,-0.004734066314995289
1772558483603964700,3.837964599609375,0.00916270911693573,-0.006719320081174374,-0.045355409383773804
1772558483622737000,3.85673681640625,0.0030542362947016954,0.03787253051996231,-0.030695075169205666
1772558483641509400,3.87550927734375,0.01175880990922451,-0.04413371533155441,0.01725643500685692
1772558483660281600,3.894281494140625,-0.004734066314995289,-0.0331384651362896,0.01954711228609085
1772558483679054000,3.91305419921875,0.007941014133393764,0.01572931744158268,-0.0030542362947016954
1772558483697826600,3.93182666015625,0.038483377546072006,-0.011606098152697086,-0.008704573847353458
1772558483716598800,3.950598876953125,0.02993151545524597,-0.032222192734479904,-0.003970507066696882
1772558483735371000,3.96937109375,0.016492875292897224,-0.0068720318377017975,-0.011300674639642239
1772558483754143500,3.9881435546875,0.02076880633831024,-0.02076880633831024,-0.00916270911693573
1772558483772915700,4.006915771484375,-0.012064233422279358,0.009468132629990578,0.019394399598240852
1772558483791688200,4.025688232421875,-0.05238015204668045,0.053143709897994995,0.051463883370161057
1772558483810460700,4.044460693359375,-0.03405473381280899,-0.0007635590736754239,0.024433890357613564
1772558483829233000,4.06323291015625,-0.005344913341104984,-0.03634541109204292,-0.03298575058579445
1772558483848005000,4.082005126953125,-0.0012216945178806782,0.009620844386518002,-0.04932591691613197
1772558483866777600,4.100777587890625,0.014049487188458443,0.015271181240677834,0.00259610079228878
1772558483885550000,4.119550048828125,0.03237490355968475,-0.03390202298760414,0.04489727318286896
1772558483904322300,4.138322265625,0.012216945178806782,-0.02229592576622963,0.014965757727622986
1772558483923094800,4.1570947265625,0.014049487188458443,-0.023059483617544174,-0.03390202298760414
1772558483941867000,4.175866943359375,0.0012216945178806782,0.012675080448389053,-0.04871506989002228
1772558483960639500,4.194639404296875,-0.025655584409832954,0.08582404255867004,0.0012216945178806782
1772558483979411700,4.21341162109375,-0.012064233422279358,0.005955760832875967,0.06154286116361618
1772558483998184200,4.23218408203125,0.010537114925682545,-0.06704048812389374,0.02886253222823143
1772558484016956400,4.250956298828125,0.028098974376916885,0.00916270911693573,-0.03695625811815262
1772558484035729000,4.26972900390625,0.03542914241552353,0.04550812020897865,-0.0029015245381742716
1772558484054501000,4.288501220703125,0.01832541823387146,0.032069481909275055,0.0647498071193695
1772558484073273600,4.307273681640625,0.0038177953101694584,-0.015576604753732681,0.04825693368911743
1772558484092045800,4.3260458984375,0.009773556143045425,-0.004734066314995289,-0.028098974376916885
1772558484110818300,4.344818359375,0.016492875292897224,0.007482878863811493,-0.025808297097682953
1772558484129590500,4.363590576171875,0.012216945178806782,-0.004581354558467865,0.01832541823387146
1772558484148363000,4.382363037109375,-0.012675080448389053,0.014660334214568138,0.038483377546072006
1772558484167135200,4.40113525390625,0.0024433890357613564,-0.005497625097632408,-0.00519220158457756
1772558484185907700,4.41990771484375,0.023823043331503868,-0.031000498682260513,-0.03497100621461868
1772558484204680000,4.438679931640625,0.02626643143594265,-0.031000498682260513,0.00519220158457756
1772558484223452400,4.457452392578125,0.023823043331503868,-0.007635590620338917,0.05131116881966591
1772558484242224600,4.476224609375,0.02993151545524597,0.010842538438737392,0.02993151545524597
1772558484260997000,4.4949970703125,0.015271181240677834,-0.01695101149380207,0.0038177953101694584
1772558484279769300,4.513769287109375,-0.005955760832875967,-0.057114217430353165,0.005650337319821119
1772558484298541800,4.532541748046875,-0.018783552572131157,-0.012369656935334206,-0.01252236869186163
1772558484317314300,4.551314208984375,-0.021379653364419937,0.03130592033267021,-0.019394399598240852
1772558484336086500,4.57008642578125,-0.021226942539215088,-0.007330167107284069,-0.003970507066696882
1772558484354859000,4.58885888671875,-0.021837789565324783,-0.03268032893538475,0.008399149402976036
1772558484373631200,4.60763134765625,-0.010842538438737392,-0.009468132629990578,0.012827792204916477
1772558484392403700,4.62640380859375,-0.0029015245381742716,0.012827792204916477,0.038483377546072006
1772558484411176000,4.645176025390625,0.0036650835536420345,0.009620844386518002,0.030542362481355667
1772558484429948400,4.663948486328125,0.010995250195264816,-0.012216945178806782,-0.007482878863811493
1772558484448720600,4.682720703125,0.030542362481355667,-0.01954711228609085,-0.041384901851415634
1772558484467493000,4.7014931640625,0.029320668429136276,-0.006413896102458239,-0.020616095513105392
1772558484486265300,4.720265380859375,0.017714571207761765,-0.007330167107284069,0.03145863488316536
1772558484505037800,4.739037841796875,0.005497625097632408,0.0029015245381742716,0.02504473738372326
1772558484523810000,4.75781005859375,0.012827792204916477,0.013744063675403595,-0.01847812905907631
1772558484542582500,4.77658251953125,0.03176405653357506,0.008093725889921188,-0.03008422814309597
1772558484561354800,4.795354736328125,0.04825693368911743,-0.018936265259981155,0.00015271181473508477
1772558484580127200,4.814127197265625,0.05008947476744652,0.0018325417768210173,-0.0015271181473508477
1772558484598899500,4.8328994140625,0.05070032179355621,0.010689826682209969,-0.012216945178806782
1772558484617672000,4.851671875,0.04153761267662048,0.011453386396169662,-0.01038440316915512
1772558484636444400,4.8704443359375,0.02504473738372326,-0.007330167107284069,0.0022906772792339325
1772558484655216600,4.889216552734375,0.012827792204916477,-0.011147962883114815,-0.018630841746926308
1772558484673989000,4.907989013671875,0.01710372418165207,0.013438640162348747,-0.04016320779919624
1772558484692761300,4.92676123046875,0.01588202826678753,0.020463382825255394,-0.017409147694706917
1772558484711533800,4.945533935546875,0.004275931045413017,0.011300674639642239,0.018630841746926308
1772558484730306000,4.96430615234375,0.014660334214568138,-0.008704573847353458,0.027029991149902344
1772558484749078500,4.98307861328125,0.023823043331503868,-0.008399149402976036,0.0030542362947016954
1772558484767850800,5.001850830078125,0.023823043331503868,0.007024743594229221,-0.015271181240677834
1772558484786623200,5.020623291015625,0.010995250195264816,0.008399149402976036,-0.00916270911693573
1772558484805395500,5.0393955078125,-0.0018325417768210173,-0.0024433890357613564,-0.0021379655227065086
1772558484824168000,5.05816796875,-0.007788302376866341,-0.005955760832875967,0.007941014133393764
1772558484842940400,5.0769404296875,-0.011453386396169662,-0.004581354558467865,0.01588202826678753
1772558484861712600,5.095712646484375,-0.020616095513105392,0.024433890357613564,0.0029015245381742716
1772558484880485000,5.114485107421875,-0.020005248486995697,0.008551862090826035,-0.0004581354442052543
1772558484899257300,5.13325732421875,-0.029778804630041122,0.006108472589403391,-0.0010689827613532543
1772558484918029800,5.15202978515625,-0.026724567636847496,0.0006108472589403391,-0.003359660040587187
1772558484936802000,5.170802001953125,-0.023059483617544174,0.014813045971095562,0.010537114925682545
1772558484955574500,5.189574462890625,-0.014507622458040714,0.0007635590736754239,0.009009997360408306
1772558484974346800,5.2083466796875,-0.01572931744158268,0.00916270911693573,-0.0004581354442052543
1772558484993119200,5.227119140625,-0.021837789565324783,-0.006413896102458239,-0.01695101149380207
1772558485011891500,5.245891357421875,-0.03649812191724777,0.009009997360408306,-0.006719320081174374
1772558485030664000,5.264663818359375,-0.03588727489113808,-0.012980503961443901,-0.01175880990922451
1772558485049436200,5.283436279296875,-0.03955236077308655,-0.023975754156708717,-0.01969982497394085
1772558485068208600,5.302208740234375,-0.029778804630041122,0.012980503961443901,-0.02473931387066841
1772558485086981000,5.320981201171875,-0.01954711228609085,0.05238015204668045,-0.0006108472589403391
1772558485105753300,5.33975341796875,-0.004123218823224306,0.016340164467692375,0.032222192734479904
1772558485124525800,5.35852587890625,0.012827792204916477,-0.005803049076348543,0.012216945178806782
1772558485143298000,5.377298095703125,0.02076880633831024,0.017409147694706917,-0.017867282032966614
1772558485162070500,5.396070556640625,0.016492875292897224,0.026571854948997498,-0.01252236869186163
1772558485180842800,5.4148427734375,0.0006108472589403391,0.007482878863811493,0.008857285603880882
1772558485199615200,5.433615234375,-0.010231691412627697,-0.014813045971095562,-0.012980503961443901
1772558485218387500,5.452387451171875,-0.01588202826678753,-0.00519220158457756,-0.06032116711139679
1772558485237160000,5.471159912109375,-0.017714571207761765,0.028251685202121735,-0.06826218217611313
1772558485255932400,5.489932373046875,-0.012827792204916477,0.02733541466295719,-0.004581354558467865
1772558485274704600,5.50870458984375,-0.010231691412627697,0.018936265259981155,0.04153761267662048
1772558485293477000,5.52747705078125,-0.012675080448389053,0.008857285603880882,0.019394399598240852
1772558485312249300,5.546249267578125,0.0024433890357613564,0.006413896102458239,-0.015271181240677834
1772558485331021800,5.565021728515625,0.01038440316915512,-0.01038440316915512,-0.00259610079228878
1772558485349794000,5.5837939453125,0.006719320081174374,-0.002748812548816204,0.023212196305394173
1772558485368566500,5.60256640625,0.00259610079228878,-0.006413896102458239,0.014660334214568138
1772558485387339000,5.621339111328125,0.0018325417768210173,-0.001985253533348441,-0.01572931744158268
1772558485406111200,5.640111328125,-0.012216945178806782,0.027946261689066887,-0.008246437646448612
1772558485424883700,5.6588837890625,-0.01572931744158268,0.018630841746926308,0.024128466844558716
1772558485443656000,5.677656005859375,-0.009009997360408306,-0.004428642801940441,0.022754060104489326
1772558485462428400,5.696428466796875,0.00916270911693573,-0.010078979656100273,-0.02489202655851841
1772558485481200600,5.71520068359375,0.00916270911693573,0.004428642801940441,-0.02764083817601204
1772558485499973000,5.73397314453125,0.004275931045413017,0.020310672000050545,0.00992626789957285
1772558485518745300,5.752745361328125,0.006108472589403391,0.007177455350756645,0.02993151545524597
1772558485537517800,5.771517822265625,0.016492875292897224,-0.006719320081174374,0.0010689827613532543
1772558485556290300,5.790290283203125,0.02076880633831024,-0.005344913341104984,-0.02870982140302658
1772558485575062500,5.8090625,-0.004886778071522713,0.008857285603880882,-0.02214321307837963
1772558485593835000,5.8278349609375,-0.0456608310341835,0.01954711228609085,0.004275931045413017
1772558485612607200,5.846607177734375,-0.043828289955854416,0.024281177669763565,-0.004428642801940441
1772558485631379700,5.865379638671875,-0.033443886786699295,0.03145863488316536,-0.01511846948415041
1772558485650152000,5.88415185546875,-0.014660334214568138,0.019241688773036003,-0.013591351918876171
1772558485668924400,5.90292431640625,0.015271181240677834,-0.020005248486995697,0.0007635590736754239
1772558485687696600,5.921696533203125,0.022601349279284477,-0.016798298805952072,0.015576604753732681
1772558485706469000,5.94046923828125,0.010995250195264816,0.025197450071573257,0.01969982497394085
1772558485725241600,5.95924169921875,0.006108472589403391,0.03420744836330414,0.010231691412627697
1772558485744013800,5.978013916015625,0.004886778071522713,-0.007330167107284069,0.0016798300202935934
1772558485762786300,5.996786376953125,0.007482878863811493,-0.04169032722711563,-0.017561858519911766
1772558485781558500,6.01555859375,0.0018325417768210173,-0.019394399598240852,-0.03405473381280899
1772558485800331000,6.0343310546875,0.0018325417768210173,0.017561858519911766,-0.04016320779919624
1772558485819103500,6.053103515625,0.004886778071522713,0.01832541823387146,-0.033443886786699295
1772558485837875700,6.071875732421875,0.020157959312200546,-0.00992626789957285,-0.014965757727622986
1772558485856648000,6.09064794921875,0.04153761267662048,-0.041232191026210785,0.007941014133393764
1772558485875420400,6.10942041015625,0.03237490355968475,-0.0331384651362896,0.01954711228609085
1772558485894193000,6.12819287109375,0.0018325417768210173,0.010537114925682545,0.010689826682209969
1772558485912965000,6.146965087890625,-0.012675080448389053,0.013896775431931019,-0.0036650835536420345
1772558485931737600,6.165737548828125,-0.010842538438737392,-0.011606098152697086,-0.004428642801940441
1772558485950509800,6.184509765625,-0.007788302376866341,-0.033291175961494446,0.007788302376866341
1772558485969282300,6.2032822265625,0.0012216945178806782,-0.004734066314995289,0.005955760832875967
1772558485988054800,6.2220546875,0.00916270911693573,0.01817270554602146,-0.007482878863811493
1772558486006827000,6.240826904296875,0.007330167107284069,-0.00992626789957285,-0.011300674639642239
1772558486025599500,6.259599609375,-0.0035123717971146107,-0.038636088371276855,-0.013896775431931019
1772558486044371700,6.278371826171875,-0.007788302376866341,-0.01710372418165207,-0.0012216945178806782
1772558486063144200,6.297144287109375,-0.012675080448389053,0.011911521665751934,0.02244863659143448
1772558486081916400,6.31591650390625,-0.013285927474498749,-0.0007635590736754239,0.030695075169205666
1772558486100689000,6.33468896484375,-0.020005248486995697,-0.01588202826678753,-0.004886778071522713
1772558486119461000,6.353461181640625,-0.01695101149380207,-0.0029015245381742716,-0.029320668429136276
1772558486138233600,6.372233642578125,-0.020005248486995697,-0.010689826682209969,0.00916270911693573
1772558486157006000,6.391006103515625,-0.012064233422279358,0.0006108472589403391,0.04184303805232048
1772558486175778300,6.4097783203125,0.0024433890357613564,0.011911521665751934,0.020005248486995697
1772558486194550800,6.42855078125,0.009773556143045425,-0.001374406274408102,-0.009468132629990578
1772558486213323000,6.447322998046875,0.014049487188458443,-0.02214321307837963,-0.013591351918876171
1772558486232095500,6.466095458984375,0.01038440316915512,-0.0012216945178806782,0.0009162708884105086
1772558486250868000,6.484867919921875,0.004275931045413017,0.0024433890357613564,0.03374931216239929
1772558486269640200,6.50364013671875,0.0038177953101694584,-0.006719320081174374,0.032069481909275055
1772558486288412700,6.52241259765625,-0.006108472589403391,-0.004886778071522713,-0.007635590620338917
1772558486307185000,6.541184814453125,-0.0036650835536420345,-0.016340164467692375,-0.03405473381280899
1772558486325957400,6.559957275390625,0.006719320081174374,-0.029626091942191124,-0.025655584409832954
1772558486344729600,6.5787294921875,0.01038440316915512,-0.023975754156708717,-0.016492875292897224
1772558486363502000,6.597502197265625,0.0024433890357613564,0.013591351918876171,-0.02901524491608143
1772558486382274600,6.616274658203125,-0.011606098152697086,0.04016320779919624,0.00015271181473508477
1772558486401046800,6.635046875,-0.010842538438737392,-0.001374406274408102,0.05986303091049194
1772558486419819300,6.6538193359375,0.007482878863811493,-0.008857285603880882,0.054365407675504684
1772558486438591500,6.672591552734375,0.00916270911693573,0.005650337319821119,0.010842538438737392
1772558486457364000,6.691364013671875,-0.0018325417768210173,0.006413896102458239,-0.02214321307837963
1772558486476136200,6.71013623046875,-0.00916270911693573,0.0022906772792339325,-0.013285927474498749
1772558486494908700,6.72890869140625,-0.0065666078589856625,0.0029015245381742716,0.025655584409832954
1772558486513681000,6.747680908203125,0.008551862090826035,0.0030542362947016954,0.03436015918850899
1772558486532453400,6.766453369140625,0.008093725889921188,-0.016798298805952072,0.012369656935334206
1772558486551225900,6.785225830078125,-0.005955760832875967,-0.030695075169205666,-0.024433890357613564
1772558486569998000,6.803998046875,-0.0006108472589403391,-0.021532366052269936,-0.05619794875383377
1772558486588770600,6.8227705078125,0.0030542362947016954,-0.01572931744158268,-0.029778804630041122
1772558486607542800,6.841542724609375,-0.004123218823224306,-0.021226942539215088,0.04214845970273018
1772558486626315300,6.860315185546875,-0.007177455350756645,-0.024128466844558716,0.0459662564098835
1772558486645087700,6.879087646484375,-0.006108472589403391,-0.005803049076348543,-0.01817270554602146
1772558486663860000,6.89785986328125,0.004886778071522713,0.011453386396169662,-0.042606595903635025
1772558486682632400,6.916632568359375,0.011606098152697086,0.0015271181473508477,-0.017714571207761765
1772558486701404700,6.93540478515625,0.012216945178806782,-0.017714571207761765,-0.004886778071522713
1772558486720177200,6.95417724609375,0.018936265259981155,-0.012369656935334206,-0.01175880990922451
1772558486738949600,6.97294970703125,0.01588202826678753,-0.004886778071522713,-0.0007635590736754239
1772558486757721900,6.991721923828125,0.014049487188458443,0.0009162708884105086,0.01954711228609085
1772558486776494300,7.010494384765625,0.00916270911693573,0.009315420873463154,0.005803049076348543
1772558486795266600,7.0292666015625,0.004886778071522713,0.032069481909275055,-0.01572931744158268
1772558486814039000,7.0480390625,0.0012216945178806782,0.013744063675403595,-0.021532366052269936
1772558486832811300,7.066811279296875,-0.0029015245381742716,-0.011453386396169662,0.0012216945178806782
1772558486851583700,7.085583740234375,0.0068720318377017975,-0.017867282032966614,0.024281177669763565
1772558486870356200,7.104356201171875,0.021379653364419937,0.013133215717971325,0.018019994720816612
1772558486889128400,7.12312841796875,0.014049487188458443,0.0068720318377017975,0.012064233422279358
1772558486907901000,7.14190087890625,0.006261184345930815,-0.033596597611904144,-0.005803049076348543
1772558486926673200,7.160673095703125,-0.009009997360408306,-0.03771981969475746,-0.04352286830544472
1772558486945445600,7.179445556640625,-0.014049487188458443,-0.00916270911693573,-0.04153761267662048
1772558486964218000,7.198218017578125,-0.006108472589403391,0.01710372418165207,0.007482878863811493
1772558486982990300,7.216990234375,0.008093725889921188,0.004428642801940441,0.04611896723508835
1772558487001762800,7.2357626953125,0.012369656935334206,-0.012216945178806782,0.031000498682260513
1772558487020535000,7.25453515625,0.008551862090826035,0.016340164467692375,-0.012980503961443901
1772558487039307500,7.2733076171875,-0.0018325417768210173,0.04169032722711563,-0.01832541823387146
1772558487058080000,7.292080078125,-0.0065666078589856625,0.012675080448389053,0.028557108715176582
1772558487076852200,7.310852294921875,-0.005344913341104984,-0.008399149402976036,0.04688252881169319
1772558487095624700,7.329624755859375,-0.01572931744158268,0.015271181240677834,0.0024433890357613564
1772558487114397000,7.34839697265625,-0.017714571207761765,0.02504473738372326,-0.0397050715982914
1772558487133169400,7.36716943359375,-0.0030542362947016954,0.0024433890357613564,-0.042453885078430176
1772558487151941600,7.385941650390625,0.011606098152697086,-0.01969982497394085,-0.014813045971095562
1772558487170714000,7.404714111328125,0.006719320081174374,-0.024281177669763565,0.00015271181473508477
1772558487189486600,7.423486572265625,-0.007941014133393764,-0.010689826682209969,-0.02107422985136509
1772558487208258800,7.4422587890625,-0.006719320081174374,0.029778804630041122,-0.04230117425322533
1772558487227031300,7.46103125,-0.011606098152697086,0.030847785994410515,-0.013133215717971325
1772558487245803500,7.479803466796875,-0.012675080448389053,0.0050394898280501366,0.009009997360408306
1772558487264576000,7.498575927734375,-0.011453386396169662,0.00015271181473508477,0.007788302376866341
1772558487283348500,7.517348388671875,0.010995250195264816,0.01435491070151329,-0.013591351918876171
1772558487302120700,7.53612060546875,0.007941014133393764,0.003359660040587187,-0.013285927474498749
1772558487320893200,7.55489306640625,-0.010842538438737392,-0.008704573847353458,-0.016798298805952072
1772558487339665400,7.57366552734375,-0.017714571207761765,-0.012369656935334206,-0.055739812552928925
1772558487358438000,7.59243798828125,-0.010995250195264816,0.00015271181473508477,-0.06780404597520828
1772558487377210000,7.611210205078125,-0.007941014133393764,-0.0021379655227065086,-0.02626643143594265
1772558487395982600,7.629982666015625,-0.007177455350756645,0.007330167107284069,0.006413896102458239
1772558487414755000,7.648755126953125,-0.009773556143045425,0.013896775431931019,-0.013591351918876171
1772558487433527300,7.66752734375,-0.004275931045413017,-0.0024433890357613564,-0.04489727318286896
1772558487452299800,7.6862998046875,-0.0024433890357613564,-0.021379653364419937,-0.04810422286391258
1772558487471072000,7.705072021484375,-0.01817270554602146,0.010689826682209969,-0.015271181240677834
1772558487489844500,7.723844482421875,-0.017714571207761765,0.07116370648145676,0.029320668429136276
1772558487508617000,7.742616943359375,-0.006108472589403391,0.04230117425322533,0.055892523378133774
1772558487527389200,7.76138916015625,-0.012064233422279358,0.012827792204916477,0.03665083646774292
1772558487546161700,7.78016162109375,-0.020616095513105392,0.025197450071573257,0.01038440316915512
1772558487564934000,7.798933837890625,-0.016492875292897224,0.0390942245721817,0.004581354558467865
1772558487583706400,7.817706298828125,-0.02076880633831024,0.04825693368911743,0.014965757727622986
1772558487602478800,7.836478759765625,-0.020157959312200546,0.06245913356542587,-0.013896775431931019
1772558487621251000,7.8552509765625,-0.00916270911693573,0.019394399598240852,-0.013591351918876171
1772558487640023600,7.8740234375,-0.008399149402976036,-0.04993676394224167,-0.0036650835536420345
1772558487658795800,7.892795654296875,0.012216945178806782,-0.06490252166986465,-0.02886253222823143
1772558487677568300,7.911568359375,0.04703523963689804,-0.04993676394224167,-0.03833066672086716
1772558487696340500,7.930340576171875,0.07085828483104706,-0.02244863659143448,-0.0004581354442052543
1772558487715113000,7.949113037109375,0.06291726976633072,-0.04978405311703682,0.03955236077308655
1772558487733885400,7.967885498046875,0.054365407675504684,-0.0653606578707695,0.01954711228609085
1772558487752657700,7.98665771484375,0.023212196305394173,-0.006108472589403391,-0.04230117425322533
1772558487771430100,8.00543017578125,-0.00916270911693573,0.04810422286391258,-0.03588727489113808
1772558487790202400,8.024202392578125,-0.03588727489113808,0.024128466844558716,0.01847812905907631
1772558487808974800,8.042974853515625,-0.03955236077308655,-0.007788302376866341,0.0022906772792339325
1772558487827747300,8.061747314453125,-0.041384901851415634,0.009620844386518002,-0.05008947476744652
1772558487846519600,8.08051953125,-0.0390942245721817,0.037567105144262314,-0.052990999072790146
1772558487865292000,8.0992919921875,-0.020616095513105392,0.016340164467692375,-0.0036650835536420345
1772558487884064500,8.118064453125,0.006719320081174374,-0.00030542362947016954,0.022601349279284477
1772558487902836700,8.136836669921875,0.01710372418165207,0.0050394898280501366,0.00519220158457756
1772558487921609200,8.155609130859375,-0.01588202826678753,0.013744063675403595,-0.020310672000050545
1772558487940381400,8.17438134765625,-0.04871506989002228,0.021226942539215088,-0.04581354558467865
1772558487959154000,8.19315380859375,-0.04749337583780289,0.016492875292897224,-0.04077405482530594
1772558487977926400,8.211926513671875,-0.027946261689066887,0.016492875292897224,-0.0024433890357613564
1772558487996698600,8.23069873046875,-0.01511846948415041,0.011453386396169662,0.027946261689066887
1772558488015471000,8.24947119140625,-0.004734066314995289,-0.00015271181473508477,0.02748812735080719
1772558488034243300,8.268243408203125,0.009773556143045425,0.0030542362947016954,-0.0015271181473508477
1772558488053015800,8.287015869140625,0.00916270911693573,-0.00015271181473508477,-0.010842538438737392
1772558488071788000,8.3057880859375,0.0030542362947016954,-0.0036650835536420345,-0.0021379655227065086
1772558488090560500,8.324560546875,0.004428642801940441,-0.019241688773036003,0.013744063675403595
1772558488109333000,8.3433330078125,0.004886778071522713,-0.010689826682209969,0.010537114925682545
1772558488128105200,8.362105224609374,0,0.013896775431931019,-0.004275931045413017
1772558488146877700,8.380877685546874,-0.004886778071522713,0.02870982140302658,0.0016798300202935934
1772558488165650000,8.39964990234375,0.007330167107284069,-0.001374406274408102,0.023364907130599022
1772558488184422400,8.41842236328125,0.020157959312200546,-0.018019994720816612,0.017409147694706917
1772558488203195000,8.43719482421875,0.02626643143594265,-0.005497625097632408,-0.007635590620338917
1772558488221967000,8.455967041015626,0.031153209507465363,0.007177455350756645,-0.010842538438737392
1772558488240739600,8.474739501953126,0.023212196305394173,-0.004734066314995289,0.005955760832875967
1772558488259511800,8.49351171875,0.015271181240677834,0.006261184345930815,0.012675080448389053
1772558488278284300,8.5122841796875,0.025655584409832954,-0.03298575058579445,-0.004581354558467865
1772558488297056800,8.531056884765626,0.0036650835536420345,0.010842538438737392,-0.006719320081174374
1772558488315829000,8.5498291015625,-0.025655584409832954,0.06780404597520828,0.014507622458040714
1772558488334601500,8.5686015625,-0.014507622458040714,-0.022754060104489326,0.0261137206107378
1772558488353374000,8.5873740234375,-0.020616095513105392,-0.004581354558467865,-0.017561858519911766
1772558488372146200,8.606146240234375,0.0024433890357613564,0.037108972668647766,-0.03680354729294777
1772558488390918700,8.624918701171875,0.02626643143594265,-0.03573456406593323,0.0065666078589856625
1772558488409691000,8.64369091796875,0.017714571207761765,-0.011453386396169662,0.04199574887752533
1772558488428463400,8.66246337890625,0.01038440316915512,0.010689826682209969,0.016187451779842377
1772558488447235600,8.681235595703125,-0.0036650835536420345,-0.012369656935334206,-0.012980503961443901
1772558488466008000,8.700008056640625,-0.015271181240677834,0.011300674639642239,-0.016645587980747223
1772558488484780500,8.718780517578125,-0.0030542362947016954,-0.0021379655227065086,-0.01572931744158268
1772558488503552800,8.737552734375,0.0024433890357613564,-0.0035123717971146107,0.007177455350756645
1772558488522325200,8.7563251953125,0.0030542362947016954,0.005650337319821119,0.011911521665751934
1772558488541097700,8.77509765625,0.01038440316915512,-0.0016798300202935934,0.005344913341104984
1772558488559870000,8.793869873046875,0.009773556143045425,-0.01175880990922451,-0.00992626789957285
1772558488578642400,8.812642333984375,0.0006108472589403391,-0.0325276181101799,-0.021379653364419937
1772558488597414700,8.83141455078125,0.0036650835536420345,-0.02107422985136509,-0.025197450071573257
1772558488616187100,8.850187255859375,0.017714571207761765,0.010078979656100273,-0.01847812905907631
1772558488634959600,8.868959716796875,0.01954711228609085,-0.005497625097632408,0.030695075169205666
1772558488653731800,8.88773193359375,0.012980503961443901,-0.005344913341104984,0.04871506989002228
1772558488672504300,8.90650439453125,0.01038440316915512,-0.007941014133393764,-0.001985253533348441
1772558488691276500,8.925276611328124,-0.0018325417768210173,-0.021837789565324783,-0.037108972668647766
1772558488710049000,8.944049072265624,-0.0328330397605896,-0.02107422985136509,-0.025350160896778107
1772558488728821500,8.962821533203124,-0.03894151374697685,0.00015271181473508477,0.005955760832875967
1772558488747593700,8.98159375,-0.03161134570837021,0.027793550863862038,0.021532366052269936
1772558488766366200,9.0003662109375,-0.021226942539215088,0.013285927474498749,0.031000498682260513
1772558488785138700,9.019138671875,-0.0022906772792339325,-0.02764083817601204,0.021837789565324783
1772558488803911000,9.037910888671876,0.00916270911693573,-0.020005248486995697,0.001374406274408102
1772558488822683400,9.056683349609376,0.0036650835536420345,0.016492875292897224,0.006261184345930815
1772558488841455600,9.07545556640625,-0.0012216945178806782,0.017561858519911766,0.03161134570837021
1772558488860228000,9.09422802734375,-0.005955760832875967,-0.018783552572131157,0.0397050715982914
1772558488879000600,9.11300048828125,-0.008399149402976036,-0.03298575058579445,-0.007635590620338917
1772558488897772800,9.131772705078125,-0.013438640162348747,-0.022754060104489326,-0.053143709897994995
1772558488916545300,9.150545166015625,-0.017714571207761765,0.019394399598240852,-0.04825693368911743
1772558488935317800,9.16931787109375,-0.007941014133393764,0.016645587980747223,0.01252236869186163
1772558488954090000,9.188090087890625,-0.008399149402976036,-0.025961007922887802,0.055892523378133774
1772558488972862500,9.206862548828125,0.009773556143045425,-0.013285927474498749,0.00916270911693573
1772558488991634700,9.225634765625,0.03176405653357506,-0.004275931045413017,-0.036192700266838074
1772558489010407200,9.2444072265625,0.029320668429136276,-0.009773556143045425,-0.0050394898280501366
1772558489029179600,9.2631796875,0.01588202826678753,0.00916270911693573,0.034818295389413834
1772558489047952000,9.281951904296875,0.0006108472589403391,0.009773556143045425,0.03542914241552353
1772558489066724400,9.300724365234375,-0.011606098152697086,-0.0032069480512291193,-0.011300674639642239
1772558489085496600,9.31949658203125,-0.01954711228609085,0.004886778071522713,-0.040010496973991394
1772558489104269000,9.33826904296875,-0.0018325417768210173,0.015576604753732681,-0.02351761981844902
1772558489123041500,9.35704150390625,0.01954711228609085,0.0068720318377017975,0.011911521665751934
1772558489141813800,9.375813720703125,0.029320668429136276,-0.021379653364419937,0.03298575058579445
1772558489160586200,9.394586181640625,0.021379653364419937,-0.03451287001371384,0.009009997360408306
1772558489179358700,9.413358642578125,0.006108472589403391,-0.030695075169205666,-0.024433890357613564
1772558489198131000,9.432130859375,-0.006719320081174374,0.009773556143045425,-0.03634541109204292
1772558489216903400,9.4509033203125,-0.020157959312200546,0.05528167635202408,-0.00992626789957285
1772558489235676000,9.469676025390624,-0.014660334214568138,0.025808297097682953,0.014813045971095562
1772558489254448000,9.4884482421875,-0.004734066314995289,-0.04474456235766411,0.021685076877474785
1772558489273220600,9.507220703125,0.006719320081174374,-0.04886778071522713,-0.012980503961443901
1772558489291992800,9.525992919921874,0.00916270911693573,0.015423892997205257,-0.02351761981844902
1772558489310765300,9.544765380859374,-0.0036650835536420345,0.04947862774133682,0.013591351918876171
1772558489329537800,9.563537841796874,-0.0006108472589403391,-0.005497625097632408,0.03634541109204292
1772558489348310000,9.58231005859375,0.006108472589403391,-0.032069481909275055,0.004581354558467865
1772558489367082500,9.60108251953125,0.0012216945178806782,0.005955760832875967,-0.011453386396169662
1772558489385855000,9.61985498046875,0,0.028251685202121735,0.016492875292897224
1772558489404627200,9.638627197265626,-0.004886778071522713,0.008093725889921188,0.0459662564098835
1772558489423399700,9.657399658203126,-0.005955760832875967,-0.017867282032966614,0.0198525357991457
1772558489442172200,9.676172119140626,-0.01695101149380207,-0.025350160896778107,-0.025808297097682953
1772558489460944400,9.6949443359375,-0.024433890357613564,0.02351761981844902,-0.017409147694706917
1772558489479716900,9.713716796875,-0.017714571207761765,0.03695625811815262,0.02504473738372326
1772558489498489000,9.732489013671875,-0.010995250195264816,0.014507622458040714,0.02733541466295719
1772558489517261600,9.751261474609375,0.006719320081174374,-0.026724567636847496,0.003359660040587187
1772558489536034000,9.770033935546875,0.033596597611904144,-0.04046862944960594,-0.020616095513105392
1772558489554806300,9.78880615234375,0.028098974376916885,0.0021379655227065086,-0.017714571207761765
1772558489573578800,9.807578857421875,-0.004886778071522713,0.05207473039627075,0.020463382825255394
1772558489592351200,9.826351318359375,-0.0006108472589403391,0.0006108472589403391,0.03802524134516716
1772558489611123500,9.84512353515625,0.02626643143594265,-0.0462716780602932,-0.004886778071522713
1772558489629896000,9.86389599609375,0.03787253051996231,-0.04932591691613197,-0.041384901851415634
1772558489648668400,9.88266845703125,0.05375456064939499,-0.06948387622833252,0.033291175961494446
1772558489667440600,9.901440673828125,0.045355409383773804,-0.0778830274939537,0.10827267915010452
1772558489686213000,9.920213134765625,0.04413371533155441,-0.045202698558568954,0.10521844029426575
1772558489704985600,9.938985595703125,0.02748812735080719,-0.015576604753732681,0.04840964451432228
1772558489723757800,9.9577578125,0.02076880633831024,0.008246437646448612,-0.022754060104489326
1772558489742530300,9.9765302734375,0.009773556143045425,0.036039989441633224,-0.07085828483104706
1772558489761302800,9.995302734375,-0.01832541823387146,0.06963659077882767,-0.09376505762338638
1772558489780075000,10.014074951171875,-0.04092676565051079,0.056808795779943466,-0.031000498682260513
