time,seconds_elapsed,z,y,x
1772557028066309000,0.24830908203125,-0.03049182891845703,0.006752774119377136,-0.01053425669670105
1772557028085082400,0.267082275390625,-0.029296875,0.008086241781711578,-0.005837850272655487
1772557028103855400,0.28585546875,-0.03049468994140625,0.0021433085203170776,-0.0035419315099716187
1772557028122628600,0.304628662109375,-0.042464256286621094,0.0036832988262176514,0.0012029632925987244
1772557028141401900,0.32340185546875,-0.028102874755859375,-0.003736332058906555,0.0025765448808670044
1772557028160174800,0.3421748046875,-0.03648185729980469,-0.00982706993818283,0.005974575877189636
1772557028178948000,0.360947998046875,-0.02929973602294922,0.008434176445007324,0.005867771804332733
1772557028197721300,0.379721435546875,-0.032889366149902344,0.009786278009414673,-0.0013078376650810242
1772557028216494300,0.398494384765625,-0.029295921325683594,0.0047416165471076965,-0.007272012531757355
1772557028235267600,0.417267578125,-0.03169059753417969,0.005774781107902527,-0.010841116309165955
1772557028254040600,0.43604052734375,-0.02929401397705078,0.003579460084438324,-0.0035317763686180115
1772557028272813800,0.454813720703125,-0.018523216247558594,-0.0024757012724876404,-0.00835420936346054
1772557028291587000,0.473587158203125,-0.03288555145263672,0.003708958625793457,-0.0024977028369903564
1772557028310360000,0.492360107421875,-0.038867950439453125,0.011153183877468109,-0.0011814683675765991
1772557028329133300,0.51113330078125,-0.026899337768554688,0.0015079528093338013,0.0036705434322357178
1772557028347906600,0.529906494140625,-0.029293060302734375,0.002811722457408905,0.0011326223611831665
1772557028366679600,0.548679443359375,-0.029293060302734375,0.00036729127168655396,-0.0024144500494003296
1772557028385452800,0.567452880859375,-0.034079551696777344,-0.0011356770992279053,-0.010714851319789886
1772557028404225800,0.586225830078125,-0.02570056915283203,-0.0009364783763885498,-0.008354485034942627
1772557028422999000,0.6049990234375,-0.0328826904296875,0.00243532657623291,-0.011916197836399078
1772557028441772300,0.623772216796875,-0.046050071716308594,0.0026725605130195618,-0.00007530301809310913
1772557028460545300,0.642545166015625,-0.030488967895507812,0.008793607354164124,-0.004786454141139984
1772557028479318500,0.661318603515625,-0.028095245361328125,0.005188487470149994,-0.0022779107093811035
1772557028498091500,0.680091552734375,-0.031836509704589844,-0.007093176245689392,-0.00200682133436203
1772557028516864800,0.69886474609375,-0.027047157287597656,-0.004555411636829376,0.0006143972277641296
1772557028535638000,0.717637939453125,-0.03213977813720703,0.00031372159719467163,0.0036585330963134766
1772557028554411000,0.736410888671875,-0.03946876525878906,0.007452026009559631,0.005971074104309082
1772557028573184300,0.755184326171875,-0.03573036193847656,-0.0035382434725761414,-0.002393372356891632
1772557028591957500,0.77395751953125,-0.03587913513183594,0.008275516331195831,-0.008450217545032501
1772557028610730500,0.79273046875,-0.02750110626220703,0.008111007511615753,-0.008589312434196472
1772557028629503700,0.811503662109375,-0.036780357360839844,-0.0073124319314956665,-0.004932127892971039
1772557028648277000,0.830277099609375,-0.027353286743164062,-0.004873380064964294,-0.008414886891841888
1772557028667050000,0.849050048828125,-0.023613929748535156,0.00029496848583221436,-0.00007171928882598877
1772557028685823200,0.8678232421875,-0.039473533630371094,0.006181381642818451,0.008025147020816803
1772557028704596200,0.88659619140625,-0.034682273864746094,0.003693215548992157,0.0011752769351005554
1772557028723369500,0.905369384765625,-0.03827095031738281,-0.0031689032912254333,0.0012941211462020874
1772557028742142700,0.924142822265625,-0.027496337890625,0.005159460008144379,-0.000046543776988983154
1772557028760915700,0.942915771484375,-0.03228282928466797,0.0015625432133674622,-0.0023074746131896973
1772557028779689000,0.96168896484375,-0.027494430541992188,0.0028005391359329224,-0.0012005120515823364
1772557028798462200,0.980462158203125,-0.02869129180908203,0.0005042925477027893,-0.003485172986984253
1772557028817235200,0.999235107421875,-0.03347969055175781,0.003726452589035034,-0.006049163639545441
1772557028836008400,1.018008544921875,-0.031083106994628906,0.0026792138814926147,-0.004661224782466888
1772557028854781700,1.03678173828125,-0.032280921936035156,-0.0008306428790092468,-0.0021900758147239685
1772557028873554700,1.0555546875,-0.03347587585449219,-0.004114478826522827,0.0027036741375923157
1772557028892328000,1.074327880859375,-0.03916168212890625,-0.0028093531727790833,0.0015192478895187378
1772557028911101200,1.09310107421875,-0.033026695251464844,-0.0002778768539428711,0.007522061467170715
1772557028929874200,1.111874267578125,-0.036617279052734375,0.00199214369058609,0.003862038254737854
1772557028948647400,1.1306474609375,-0.04005908966064453,-0.005444981157779694,-0.0020568445324897766
1772557028967420400,1.14942041015625,-0.02599334716796875,0.005264274775981903,-0.008055590093135834
1772557028986193700,1.168193603515625,-0.0418548583984375,0.012110762298107147,-0.011551380157470703
1772557029004967000,1.186966796875,-0.04035758972167969,0.0048651322722435,-0.0042278096079826355
1772557029023740000,1.205739990234375,-0.027190208435058594,0.004707671701908112,-0.010188393294811249
1772557029042513200,1.22451318359375,-0.027191162109375,0.00732818990945816,-0.004173099994659424
1772557029061286400,1.243286376953125,-0.02928447723388672,0.0024121031165122986,-0.0003769397735595703
1772557029080059400,1.262059326171875,-0.034221649169921875,0.004884600639343262,0.000960037112236023
1772557029098832600,1.28083251953125,-0.03332328796386719,-0.0012429803609848022,-0.0012757852673530579
1772557029117605600,1.299605712890625,-0.03586578369140625,0.004839673638343811,0.003424331545829773
1772557029136379000,1.31837890625,-0.03945732116699219,0.003591664135456085,-0.00498894602060318
1772557029155152100,1.337152099609375,-0.03825950622558594,0.004867732524871826,-0.0015757232904434204
1772557029173925000,1.355925048828125,-0.033471107482910156,0.004646770656108856,-0.01684705913066864
1772557029192698400,1.374698486328125,-0.03586387634277344,0.0026137977838516235,-0.005964398384094238
1772557029211471600,1.3934716796875,-0.038257598876953125,0.0037385225296020508,-0.006082065403461456
1772557029230244600,1.41224462890625,-0.03227043151855469,0.005910314619541168,-0.002292633056640625
1772557029249017900,1.431017822265625,-0.03226947784423828,0.001409091055393219,0.003766573965549469
1772557029267791000,1.449791015625,-0.03945159912109375,0.0013569295406341553,-0.00345514714717865
1772557029286564000,1.468564208984375,-0.0274810791015625,0.008913829922676086,0.007200665771961212
1772557029305337300,1.48733740234375,-0.03047657012939453,0.0016615018248558044,0.007112570106983185
1772557029324110600,1.506110595703125,-0.031668663024902344,0.009016081690788269,-0.0022801756858825684
1772557029342883600,1.524883544921875,-0.03166770935058594,0.005416937172412872,0.002583146095275879
1772557029361656800,1.54365673828125,-0.03765392303466797,0.006193108856678009,-0.005765356123447418
1772557029380430000,1.56243017578125,-0.032866477966308594,0.001137658953666687,-0.012858152389526367
1772557029399203000,1.581203125,-0.02927398681640625,0.008452817797660828,-0.015167847275733948
1772557029417976300,1.599976318359375,-0.04364013671875,0.0009023323655128479,-0.012852035462856293
1772557029436749600,1.61874951171875,-0.03406238555908203,0.003700949251651764,-0.008095450699329376
1772557029455522600,1.6375224609375,-0.029274940490722656,-0.0033435896039009094,0.002697974443435669
1772557029474295800,1.6562958984375,-0.03405952453613281,-0.001825384795665741,0.014722667634487152
1772557029493069000,1.675069091796875,-0.02927398681640625,0.00440581887960434,0.02033628523349762
1772557029511842000,1.693842041015625,-0.037654876708984375,-0.0005945265293121338,0.014457710087299347
1772557029530615300,1.712615234375,-0.035259246826171875,0.0007016658782958984,0.006088726222515106
1772557029549388500,1.731388427734375,-0.03166770935058594,0.005033500492572784,-0.011889718472957611
1772557029568161500,1.75016162109375,-0.029277801513671875,0.007297113537788391,-0.01561177521944046
1772557029586934800,1.768934814453125,-0.03646087646484375,0.00946742296218872,-0.025209002196788788
1772557029605708000,1.7877080078125,-0.034069061279296875,0.01651494950056076,-0.03269968181848526
1772557029624481000,1.80648095703125,-0.03287315368652344,0.003275439143180847,-0.019309625029563904
1772557029643254300,1.825254150390625,-0.030483245849609375,0.003539562225341797,0.00927116721868515
1772557029662027500,1.844027587890625,-0.025696754455566406,-0.010040916502475739,0.05244508385658264
1772557029680800500,1.862800537109375,-0.032878875732421875,-0.01024916023015976,0.04536748677492142
1772557029699573800,1.88157373046875,-0.035721778869628906,0.0009959042072296143,0.020205475389957428
1772557029718347000,1.900346923828125,-0.03467369079589844,-0.001020096242427826,-0.014130823314189911
1772557029737120000,1.9191201171875,-0.03706645965576172,0.008443549275398254,-0.022789359092712402
1772557029755893200,1.937893310546875,-0.027492523193359375,0.017936579883098602,-0.031232982873916626
1772557029774666500,1.95666650390625,-0.04185962677001953,-0.005138106644153595,-0.029538974165916443
1772557029793439500,1.975439453125,-0.03228473663330078,0.006009414792060852,-0.010820001363754272
1772557029812212700,1.994212646484375,-0.031085968017578125,0.0026717856526374817,0.005005396902561188
1772557029830986000,2.012986083984375,-0.028690338134765625,-0.0019251629710197449,0.005158431828022003
1772557029849759000,2.031759033203125,-0.03467559814453125,0.0057059600949287415,0.009342968463897705
1772557029868532200,2.0505322265625,-0.03467750549316406,0.0030907541513442993,0.013036832213401794
1772557029887305500,2.069305419921875,-0.03452873229980469,-0.0017661824822425842,0.010803796350955963
1772557029906078500,2.088078369140625,-0.028244972229003906,0.008051283657550812,0.010397955775260925
1772557029924851700,2.106851806640625,-0.034079551696777344,-0.001574881374835968,0.0007698908448219299
1772557029943625000,2.125625,-0.02959156036376953,0.005441389977931976,-0.002801351249217987
1772557029962398000,2.14439794921875,-0.03213310241699219,-0.0007459372282028198,-0.023126937448978424
1772557029981171200,2.163171142578125,-0.06459712982177734,0.007647283375263214,-0.024019353091716766
1772557029999944400,2.1819443359375,-0.015222549438476562,0.007720246911048889,-0.018169425427913666
1772557030018717700,2.2007177734375,-0.03571891784667969,0.009023189544677734,-0.016991443932056427
1772557030037490700,2.21949072265625,-0.0379638671875,0.0021241307258605957,-0.00017555803060531616
1772557030056264000,2.238263916015625,-0.02823638916015625,0.0012299567461013794,0.00814693421125412
1772557030075037200,2.257037109375,-0.029283523559570312,-0.0020186230540275574,0.027440622448921204
1772557030093810200,2.27581005859375,-0.029433250427246094,-0.00524979829788208,0.029823288321495056
1772557030112583400,2.29458349609375,-0.025092124938964844,0.00039264559745788574,0.021232575178146362
1772557030131356400,2.3133564453125,-0.03691673278808594,-0.002071850001811981,0.009249739348888397
1772557030150129700,2.332129638671875,-0.03467273712158203,0.006998375058174133,-0.01492840051651001
1772557030168903000,2.35090283203125,-0.03347587585449219,0.009277746081352234,-0.031712211668491364
1772557030187676200,2.36967626953125,-0.03587055206298828,0.004323340952396393,-0.03297591954469681
1772557030206449200,2.38844921875,-0.034674644470214844,0.003353498876094818,-0.016241371631622314
1772557030225222400,2.407222412109375,-0.03587150573730469,0.0025887787342071533,0.005320921540260315
1772557030243995600,2.42599560546875,-0.036772727966308594,0.00021726638078689575,0.019826240837574005
1772557030262768600,2.4447685546875,-0.02599811553955078,-0.0054326653480529785,0.014861732721328735
1772557030281542000,2.4635419921875,-0.03452777862548828,0.007907487452030182,0.029127798974514008
1772557030300315100,2.482315185546875,-0.026296615600585938,-0.003562256693840027,-0.00766909122467041
1772557030319088000,2.501088134765625,-0.03467369079589844,0.013079293072223663,-0.017406165599822998
1772557030337861400,2.519861328125,-0.027494430541992188,0.0031863749027252197,-0.027014300227165222
1772557030356634600,2.538634521484375,-0.03347969055175781,0.004456356167793274,-0.024520359933376312
1772557030375407600,2.55740771484375,-0.04185962677001953,0.003193601965904236,-0.0197514146566391
1772557030394180900,2.576180908203125,-0.028693199157714844,0.001232832670211792,0.0003558248281478882
1772557030412954000,2.5949541015625,-0.0251007080078125,-0.002099655568599701,0.009086251258850098
1772557030431727400,2.613727294921875,-0.03587055206298828,0.0019601956009864807,0.025892846286296844
1772557030450500400,2.632500244140625,-0.04903602600097656,-0.0031315460801124573,0.016377680003643036
1772557030469273600,2.651273681640625,-0.02150249481201172,0.006386525928974152,0.0007845163345336914
1772557030488046800,2.670046875,-0.03706169128417969,0.0013965815305709839,-0.007376827299594879
1772557030506820000,2.688820068359375,-0.031080245971679688,0.020366892218589783,-0.018544450402259827
1772557030525593000,2.707593017578125,-0.021501541137695312,0.002414137125015259,-0.022955402731895447
1772557030544366300,2.726366455078125,-0.03945350646972656,0.005065232515335083,-0.01467961072921753
1772557030563139300,2.745139404296875,-0.044239044189453125,-0.0018035024404525757,-0.014297977089881897
1772557030581912600,2.76391259765625,-0.03586101531982422,0.006367862224578857,-0.01951468735933304
1772557030600685800,2.782685791015625,-0.03825664520263672,0.012925438582897186,0.003140076994895935
1772557030619459000,2.801458984375,-0.03466320037841797,-0.014251604676246643,0.016816191375255585
1772557030638232000,2.820232177734375,-0.03107452392578125,-0.007618457078933716,0.04885317385196686
1772557030657005300,2.83900537109375,-0.033471107482910156,-0.0010670870542526245,0.035564765334129333
1772557030675778600,2.857778564453125,-0.03347015380859375,0.010586939752101898,0.013829551637172699
1772557030694551800,2.8765517578125,-0.03466510772705078,0.001686394214630127,-0.008560463786125183
1772557030713324800,2.89532470703125,-0.029877662658691406,0.006211563944816589,-0.0291237011551857
1772557030732098000,2.91409814453125,-0.04184913635253906,0.010619163513183594,-0.03415622562170029
1772557030750871300,2.932871337890625,-0.03226947784423828,0.00861288607120514,-0.026684947311878204
1772557030769644300,2.951644287109375,-0.03226947784423828,0.002796471118927002,-0.007141672074794769
1772557030788417500,2.97041748046875,-0.02987384796142578,0.006570883095264435,0.002353087067604065
1772557030807190800,2.989190673828125,-0.04783344268798828,-0.005164653062820435,0.014215685427188873
1772557030825964000,3.007964111328125,-0.029877662658691406,0.003290928900241852,0.019059330224990845
1772557030844737000,3.026737060546875,-0.029877662658691406,-0.007807694375514984,0.010988213121891022
1772557030863510300,3.04551025390625,-0.02868175506591797,0.002892009913921356,0.010604150593280792
1772557030882283500,3.064283447265625,-0.033469200134277344,0.003565087914466858,-0.004725910723209381
1772557030901056800,3.083056884765625,-0.037059783935546875,0.008216917514801025,-0.01310766488313675
1772557030919829800,3.101829833984375,-0.033471107482910156,0.011555537581443787,-0.014354877173900604
1772557030938603000,3.12060302734375,-0.03227519989013672,0.004932239651679993,-0.02238292247056961
1772557030957376000,3.1393759765625,-0.045447349548339844,-0.009269356727600098,-0.007738955318927765
1772557030976149200,3.158149169921875,-0.039467811584472656,-0.0026622116565704346,-0.01029917597770691
1772557030994922500,3.176922607421875,-0.01672649383544922,0.022211015224456787,-0.011904515326023102
1772557031013695700,3.19569580078125,-0.04426097869873047,0.0009474381804466248,0.002608485519886017
1772557031032468700,3.21446875,-0.0334930419921875,-0.0029002055525779724,0.011097118258476257
1772557031051242000,3.233241943359375,-0.025116920471191406,0.0015905499458312988,0.02052764594554901
1772557031070015200,3.25201513671875,-0.023920059204101562,0.006505876779556274,0.025158189237117767
1772557031088788500,3.27078857421875,-0.04786491394042969,0.0051201507449150085,0.021300815045833588
1772557031107561500,3.2895615234375,-0.038290977478027344,0.007807634770870209,-0.0050008222460746765
1772557031126334700,3.308334716796875,-0.028717041015625,0.0013384893536567688,-0.031037166714668274
1772557031145108000,3.32710791015625,-0.03230762481689453,0.012289196252822876,-0.02172895520925522
1772557031163881200,3.345881103515625,-0.022728919982910156,0.0026938170194625854,-0.021483980119228363
1772557031182654200,3.364654296875,-0.04427909851074219,0.0017229095101356506,0.0023695752024650574
1772557031201427500,3.383427490234375,-0.022733688354492188,0.0018929988145828247,0.00936182588338852
1772557031220200700,3.40220068359375,-0.05385780334472656,-0.007552303373813629,0.028920643031597137
1772557031238974000,3.420973876953125,-0.02393054962158203,-0.0006835833191871643,0.01944006234407425
1772557031257747000,3.439746826171875,-0.028717994689941406,0.005224801599979401,0.008582904934883118
1772557031276520200,3.458520263671875,-0.04427909851074219,-0.0024738088250160217,-0.009072542190551758
1772557031295293400,3.47729345703125,-0.02392864227294922,0.011975087225437164,-0.019032493233680725
1772557031314066400,3.49606640625,-0.033504486083984375,0.0070405080914497375,-0.017969340085983276
1772557031332839700,3.514839599609375,-0.051464080810546875,0.01910904049873352,-0.014637373387813568
1772557031351613000,3.533613037109375,-0.02991771697998047,0.000042982399463653564,-0.004486806690692902
1772557031370386200,3.55238623046875,-0.02872180938720703,0.004921577870845795,0.010670915246009827
1772557031389159200,3.5711591796875,-0.03231334686279297,-0.0019385218620300293,0.015611432492733002
1772557031407932400,3.589932373046875,-0.03470611572265625,0.003857336938381195,0.004760093986988068
1772557031426705700,3.60870556640625,-0.031113624572753906,0.010953061282634735,0.0010821595788002014
1772557031445478700,3.627478759765625,-0.04069042205810547,0.0009843409061431885,-0.0021848008036613464
1772557031464252000,3.646251953125,-0.028722763061523438,-0.00015489012002944946,-0.006008528172969818
1772557031483025200,3.665025146484375,-0.02991962432861328,0.004440896213054657,-0.009508095681667328
1772557031501798400,3.68379833984375,-0.03470611572265625,0.0020085498690605164,-0.004336833953857422
1772557031520571600,3.702571533203125,-0.02991962432861328,0.005763888359069824,0.00010946393013000488
1772557031539344600,3.7213447265625,-0.03231525421142578,0.0033298060297966003,-0.002365000545978546
1772557031558118000,3.740117919921875,-0.02871990203857422,0.004503659904003143,-0.009470276534557343
1772557031576891100,3.75889111328125,-0.04069042205810547,0.00466860830783844,-0.0010750144720077515
1772557031595664100,3.7776640625,-0.031111717224121094,0.008325695991516113,-0.0009532943367958069
1772557031614437400,3.796437255859375,-0.02751922607421875,0.0014050602912902832,0.004162706434726715
1772557031633210600,3.815210693359375,-0.04068565368652344,0.00019269436597824097,0.0029124915599823
1772557031651984000,3.83398388671875,-0.031110763549804688,0.00105198472738266,-0.0007035881280899048
1772557031670756900,3.8527568359375,-0.03230762481689453,0.003574371337890625,0.001583881676197052
1772557031689530000,3.871530029296875,-0.03470420837402344,0.00228312611579895,-0.0067770108580589294
1772557031708303400,3.890303466796875,-0.04427909851074219,0.003289930522441864,-0.010062649846076965
1772557031727076600,3.90907666015625,-0.031261444091796875,0.014064297080039978,-0.014110244810581207
1772557031745849600,3.927849609375,-0.034702301025390625,0.00818268209695816,-0.008926011621952057
1772557031764622800,3.946622802734375,-0.03350543975830078,0.01063990592956543,0.003946356475353241
1772557031783396000,3.96539599609375,-0.03709888458251953,0.011934727430343628,0.00723845511674881
1772557031802169300,3.98416943359375,-0.03470611572265625,-0.0010604262351989746,0.01371949166059494
1772557031820942300,4.0029423828125,-0.034707069396972656,0.005723588168621063,0.0038670673966407776
1772557031839715600,4.021715576171875,-0.03111553192138672,-0.00024075806140899658,0.00648016482591629
1772557031858488800,4.04048876953125,-0.029915809631347656,0.006953194737434387,-0.0017628520727157593
1772557031877262000,4.059261962890625,-0.03470420837402344,0.01284637302160263,-0.011505752801895142
1772557031896035000,4.07803515625,-0.040688514709472656,0.0033800825476646423,-0.0019913315773010254
1772557031914808300,4.096808349609375,-0.026327133178710938,0.002237550914287567,-0.0033234357833862305
1772557031933581600,4.11558154296875,-0.034705162048339844,0.00821349024772644,0.0038940012454986572
1772557031952354800,4.134354736328125,-0.03231239318847656,0.002452649176120758,0.007376030087471008
1772557031971127800,4.1531279296875,-0.03231048583984375,0.0045061782002449036,0.0039694905281066895
1772557031989901000,4.171901123046875,-0.0311126708984375,0.0022412240505218506,-0.0008139461278915405
1772557032008674300,4.19067431640625,-0.03230762481689453,-0.0048943981528282166,-0.00045678019523620605
1772557032027447600,4.209447509765625,-0.03110980987548828,0.004796825349330902,0.0005179420113563538
1772557032046220500,4.228220458984375,-0.029912948608398438,0.005913250148296356,-0.007891885936260223
1772557032064993800,4.246993896484375,-0.03829383850097656,0.001144126057624817,-0.004639357328414917
1772557032083767000,4.26576708984375,-0.03709983825683594,0.0009384825825691223,-0.004510186612606049
1772557032102540300,4.284540283203125,-0.037102699279785156,0.010611362755298615,0.004921413958072662
1772557032121313300,4.303313232421875,-0.02752685546875,0.0009052455425262451,0.0015432164072990417
1772557032140086500,4.32208642578125,-0.03949546813964844,0.004622817039489746,0.00260905921459198
1772557032158859800,4.34085986328125,-0.034709930419921875,0.00951174646615982,0.008292309939861298
1772557032177633000,4.359633056640625,-0.03471088409423828,-0.00019259005784988403,-0.0009738951921463013
1772557032196406000,4.378406005859375,-0.03231620788574219,0.0069635361433029175,-0.007132992148399353
1772557032215179300,4.39717919921875,-0.035907745361328125,0.0010360032320022583,-0.0011180639266967773
1772557032233952500,4.415952392578125,-0.031118392944335938,0.00350169837474823,-0.005875416100025177
1772557032252725800,4.434725830078125,-0.02034473419189453,0.0035744458436965942,0.0024084746837615967
1772557032271498800,4.453498779296875,-0.033514976501464844,0.003590419888496399,-0.009893156588077545
1772557032290272000,4.47227197265625,-0.02752971649169922,-0.0011747702956199646,-0.00850522518157959
1772557032309045200,4.491045166015625,-0.03590583801269531,0.00015522539615631104,-0.004685930907726288
1772557032327818500,4.509818603515625,-0.03111553192138672,0.008059009909629822,0.009142711758613586
1772557032346591500,4.528591552734375,-0.035902976989746094,0.003941647708415985,0.0009324774146080017
1772557032365364700,4.54736474609375,-0.034707069396972656,0.005523771047592163,0.009177997708320618
1772557032384138000,4.566137939453125,-0.02872180938720703,0.0015645027160644531,0.0046484097838401794
1772557032402911200,4.5849111328125,-0.037100791931152344,0.011051192879676819,-0.006504528224468231
1772557032421684200,4.603684326171875,-0.03231525421142578,0.002633601427078247,-0.008614376187324524
1772557032440457500,4.62245751953125,-0.02872467041015625,0.001343272626399994,-0.008535541594028473
1772557032459230700,4.641230712890625,-0.02992534637451172,0.0026494786143302917,-0.005437478423118591
1772557032478004000,4.66000390625,-0.035912513732910156,-0.002263382077217102,-0.005270056426525116
1772557032496777000,4.67877685546875,-0.025136947631835938,0.007677726447582245,0.000429593026638031
1772557032515550200,4.69755029296875,-0.03112030029296875,0.007947251200675964,0.0026785358786582947
1772557032534323500,4.716323486328125,-0.03112030029296875,0.000747978687286377,0.002826102077960968
1772557032553096700,4.7350966796875,-0.028726577758789062,0.001814529299736023,0.0014978796243667603
1772557032571869700,4.75386962890625,-0.031121253967285156,0.004429519176483154,-0.0007877498865127563
1772557032590643000,4.772642822265625,-0.03351402282714844,0.004294447600841522,-0.0009214058518409729
1772557032609416200,4.791416259765625,-0.025133132934570312,0.0008356943726539612,-0.0009687766432762146
1772557032628189400,4.810189453125,-0.02872753143310547,0.0031335949897766113,0.00013702362775802612
1772557032646962400,4.82896240234375,-0.03351783752441406,0.007966145873069763,0.0034903138875961304
1772557032665735700,4.847735595703125,-0.037109375,0.009951815009117126,-0.00833074003458023
1772557032684509000,4.866509033203125,-0.03351783752441406,0.0015912875533103943,-0.002219937741756439
1772557032703282200,4.8852822265625,-0.02872467041015625,0.0019285082817077637,0.0004914402961730957
1772557032722055200,4.90405517578125,-0.03949546813964844,0.006995968520641327,0.0028513818979263306
1772557032740828400,4.922828369140625,-0.03830146789550781,0.003344818949699402,0.0028760507702827454
1772557032759601700,4.9416015625,-0.027527809143066406,-0.0002624690532684326,0.006608985364437103
1772557032778375000,4.960375,-0.032311439514160156,0.004471763968467712,0.0002879202365875244
1772557032797148200,4.979148193359375,-0.04069328308105469,0.003346286714076996,-0.00808185338973999
1772557032815921200,4.997921142578125,-0.02991962432861328,0.005788624286651611,-0.0022695958614349365
1772557032834694400,5.0166943359375,-0.03590583801269531,0.005707956850528717,-0.00340985506772995
1772557032853467600,5.035467529296875,-0.034707069396972656,0.002190820872783661,-0.00821908563375473
1772557032872240600,5.05424072265625,-0.02991962432861328,0.001133464276790619,-0.008303888142108917
1772557032891014000,5.073013916015625,-0.02872180938720703,0.003803953528404236,0.0011731386184692383
1772557032909787100,5.091787109375,-0.035902976989746094,0.0025300532579421997,0.00024800002574920654
1772557032928560400,5.110560302734375,-0.028718948364257812,0.007327266037464142,0.003873206675052643
1772557032947333600,5.129333740234375,-0.035900115966796875,0.006234586238861084,0.0029619410634040833
1772557032966106600,5.148106689453125,-0.033504486083984375,0.0037614405155181885,-0.004134915769100189
1772557032984879900,5.1668798828125,-0.022731781005859375,-0.0021995529532432556,-0.0006822794675827026
1772557033003653000,5.185653076171875,-0.029913902282714844,0.013360068202018738,-0.008177012205123901
1772557033022426400,5.20442626953125,-0.034702301025390625,0.0027152299880981445,-0.013929486274719238
1772557033041199400,5.223199462890625,-0.03829193115234375,0.0052350834012031555,-0.0020910724997520447
1772557033059972600,5.24197265625,-0.02991199493408203,0.0005208179354667664,-0.0030088424682617188
1772557033078745900,5.260745849609375,-0.03709602355957031,0.004276469349861145,0.005277030169963837
1772557033097519000,5.27951904296875,-0.026320457458496094,0.006567403674125671,0.004027865827083588
1772557033116292000,5.2982919921875,-0.034697532653808594,0.004081830382347107,-0.00038371235132217407
1772557033135065300,5.3170654296875,-0.035892486572265625,0.004126004874706268,-0.002838701009750366
1772557033153838600,5.335838623046875,-0.026317596435546875,0.010032542049884796,0.004171982407569885
1772557033172611800,5.35461181640625,-0.032303810119628906,0.007564768195152283,-0.007601708173751831
1772557033191385000,5.373385009765625,-0.034697532653808594,0.008741624653339386,-0.002972543239593506
1772557033210158000,5.392157958984375,-0.026317596435546875,0.00764070451259613,-0.0003023892641067505
1772557033228931300,5.410931396484375,-0.03708934783935547,0.009023621678352356,0.0007776916027069092
1772557033247704600,5.42970458984375,-0.03110504150390625,0.006352640688419342,-0.00038539618253707886
1772557033266477600,5.4484775390625,-0.029909133911132812,0.011061489582061768,0.0006449073553085327
1772557033285250800,5.467250732421875,-0.028713226318359375,0.009843409061431885,-0.004095792770385742
1772557033304024000,5.486024169921875,-0.034694671630859375,0.006349973380565643,-0.00036519765853881836
1772557033322797300,5.50479736328125,-0.032301902770996094,0.0052320584654808044,-0.00262664258480072
1772557033341570600,5.523570556640625,-0.029906272888183594,0.012357920408248901,-0.0030362308025360107
1772557033360343600,5.542343505859375,-0.037090301513671875,0.005274519324302673,-0.00157136470079422
1772557033379116800,5.56111669921875,-0.03230094909667969,0.004178933799266815,0.003132082521915436
1772557033397890000,5.57989013671875,-0.026317596435546875,0.016116850078105927,-0.009342849254608154
1772557033416663300,5.598663330078125,-0.03349590301513672,0.004142433404922485,-0.003847561776638031
1772557033435436300,5.617436279296875,-0.03469371795654297,0.011244736611843109,-0.00296725332736969
1772557033454209500,5.63620947265625,-0.02990436553955078,0.006496712565422058,-0.004913896322250366
1772557033472982800,5.654982666015625,-0.03229999542236328,0.005229003727436066,0.0008493289351463318
1772557033491756000,5.673756103515625,-0.03349876403808594,-0.0007590726017951965,0.0034088268876075745
1772557033510529000,5.692529052734375,-0.03708839416503906,0.0028220713138580322,0.004651188850402832
1772557033529302300,5.71130224609375,-0.03110218048095703,0.010242834687232971,0.004266262054443359
1772557033548075500,5.730075439453125,-0.028705596923828125,0.00666201114654541,-0.007507629692554474
1772557033566848800,5.748848876953125,-0.0334930419921875,0.0055637359619140625,0.0009966269135475159
1772557033585622000,5.7676220703125,-0.033493995666503906,0.011522218585014343,-0.00529208779335022
1772557033604395000,5.78639501953125,-0.034691810607910156,0.009107157588005066,-0.005148164927959442
1772557033623168300,5.805168212890625,-0.037082672119140625,0.007891431450843811,0.0007693320512771606
1772557033641941500,5.82394140625,-0.03229808807373047,0.0017300546169281006,0.000005945563316345215
1772557033660714800,5.84271484375,-0.021524429321289062,0.0007898807525634766,0.000038936734199523926
1772557033679487700,5.86148779296875,-0.037087440490722656,0.005135662853717804,0.0009179785847663879
1772557033698261000,5.880260986328125,-0.03589344024658203,-0.0009082779288291931,-0.001507498323917389
1772557033717034200,5.8990341796875,-0.03110504150390625,0.007508337497711182,0.00047137588262557983
1772557033735807500,5.917807373046875,-0.03230094909667969,0.0006417706608772278,-0.002896137535572052
1772557033754580500,5.93658056640625,-0.03469562530517578,0.007545061409473419,-0.004139035940170288
1772557033773353700,5.955353759765625,-0.029906272888183594,0.003998368978500366,-0.006543144583702087
1772557033792127000,5.974126953125,-0.02631664276123047,0.007683202624320984,-0.0008899569511413574
1772557033810900200,5.992900146484375,-0.04307270050048828,0.011362791061401367,-0.0030394792556762695
1772557033829673200,6.011673095703125,-0.02870941162109375,0.006818830966949463,0.00041671842336654663
1772557033848446500,6.030446533203125,-0.03708839416503906,0.0006224215030670166,-0.0004832148551940918
1772557033867219700,6.0492197265625,-0.03469371795654297,0.008979856967926025,-0.0018409192562103271
1772557033885993000,6.067992919921875,-0.032301902770996094,0.004178792238235474,0.0005746632814407349
1772557033904766000,6.086765869140625,-0.025117874145507812,0.01008424162864685,-0.003212548792362213
1772557033923539200,6.105539306640625,-0.025116920471191406,0.007728666067123413,-0.004361696541309357
1772557033942312400,6.1243125,-0.033496856689453125,0.004238419234752655,-0.006523154675960541
1772557033961085700,6.143085693359375,-0.028708457946777344,0.01264616847038269,-0.009214796125888824
1772557033979859000,6.16185888671875,-0.028703689575195312,0.002488277852535248,0.006821557879447937
1772557033998632000,6.1806318359375,-0.039478302001953125,0.004664905369281769,0.005504243075847626
1772557034017405200,6.1994052734375,-0.03947734832763672,0.005902037024497986,0.0008496195077896118
1772557034036178400,6.218178466796875,-0.034687042236328125,0.004654698073863983,0.004309840500354767
1772557034054951700,6.23695166015625,-0.0287017822265625,0.011867396533489227,0.002990022301673889
1772557034073724700,6.255724609375,-0.03708171844482422,0.008162923157215118,-0.004056870937347412
1772557034092498000,6.274497802734375,-0.0287017822265625,0.0008628889918327332,-0.013162672519683838
1772557034111271200,6.293271240234375,-0.033486366271972656,0.0034226179122924805,-0.007230356335639954
1772557034130044400,6.31204443359375,-0.028700828552246094,0.008077628910541534,-0.007492497563362122
1772557034148817400,6.3308173828125,-0.029898643493652344,0.005704596638679504,-0.0027135908603668213
1772557034167590700,6.349590576171875,-0.022716522216796875,0.0009663105010986328,0.004736229777336121
1772557034186364000,6.368364013671875,-0.03229713439941406,0.006914034485816956,0.006747052073478699
1772557034205137200,6.38713720703125,-0.029903411865234375,0.004358895123004913,0.005721054971218109
1772557034223910400,6.405910400390625,-0.033492088317871094,-0.00012339651584625244,0.0057967230677604675
1772557034242683400,6.424683349609375,-0.027505874633789062,0.0007322058081626892,-0.005829736590385437
1772557034261456600,6.44345654296875,-0.03109455108642578,0.012617982923984528,-0.0062630027532577515
1772557034280230000,6.46222998046875,-0.027504920959472656,0.00547751784324646,-0.014281556010246277
1772557034299003100,6.481003173828125,-0.03348827362060547,0.016157105565071106,-0.01212029904127121
1772557034317776100,6.499776123046875,-0.03229236602783203,0.009046070277690887,-0.0034500136971473694
1772557034336549400,6.51854931640625,-0.039475440979003906,0.0027323290705680847,0.0029268264770507812
1772557034355322600,6.537322509765625,-0.025114059448242188,0.005354456603527069,0.004884079098701477
1772557034374096000,6.556095947265625,-0.040673255920410156,0.0021303966641426086,0.01310712844133377
1772557034392868900,6.574868896484375,-0.033489227294921875,0.00572504848241806,0.009523935616016388
1772557034411642000,6.59364208984375,-0.03947162628173828,0.0048326775431632996,0.013321436941623688
1772557034430415400,6.612415283203125,-0.033484458923339844,0.004539944231510162,0.0026183277368545532
1772557034449188600,6.631188720703125,-0.03228569030761719,0.015278495848178864,-0.008396409451961517
1772557034467961900,6.6499619140625,-0.03827095031738281,0.002215661108493805,-0.013834148645401001
1772557034486734800,6.66873486328125,-0.03587913513183594,0.009376339614391327,-0.020356006920337677
1772557034505508000,6.687508056640625,-0.033486366271972656,0.01043640822172165,-0.014469705522060394
1772557034524281300,6.70628125,-0.039473533630371094,0.006770603358745575,-0.007286965847015381
1772557034543054600,6.7250546875,-0.037078857421875,0.002067558467388153,-0.0033485516905784607
1772557034561827800,6.743827880859375,-0.023911476135253906,0.006986141204833984,0.003774203360080719
1772557034580600800,6.762600830078125,-0.03229045867919922,0.014340952038764954,0.010762766003608704
1772557034599374000,6.7813740234375,-0.027504920959472656,0.009117454290390015,0.004753179848194122
1772557034618147300,6.800147216796875,-0.027502059936523438,-0.0002931728959083557,0.0038737356662750244
1772557034636920300,6.81892041015625,-0.037078857421875,-0.00009042024612426758,0.00483231246471405
1772557034655693600,6.837693603515625,-0.01792621612548828,0.013363659381866455,0.011605776846408844
1772557034674466800,6.856466796875,-0.05024528503417969,-0.010185502469539642,0.022703461349010468
1772557034693240000,6.875239990234375,-0.019124984741210938,0.019583553075790405,0.01750829815864563
1772557034712013300,6.894013427734375,-0.04066944122314453,-0.001047566533088684,-0.0012157261371612549
1772557034730786300,6.912786376953125,-0.033486366271972656,0.014182820916175842,-0.02053634077310562
1772557034749559600,6.9315595703125,-0.02510547637939453,0.01411149650812149,-0.024241723120212555
1772557034768332800,6.950332763671875,-0.03947257995605469,0.011335112154483795,-0.03731042146682739
1772557034787106000,6.96910595703125,-0.02510547637939453,0.01772887259721756,-0.015790976583957672
1772557034805879300,6.98787939453125,-0.031090736389160156,0.0025708749890327454,0.007220767438411713
1772557034824652300,7.00665234375,-0.03228950500488281,0.0015532970428466797,0.0156087726354599
1772557034843425500,7.025425537109375,-0.0346832275390625,0.01026269793510437,0.033379457890987396
1772557034862198800,7.04419873046875,-0.03468132019042969,-0.0005998760461807251,0.016855038702487946
1772557034880972000,7.062971923828125,-0.023906707763671875,0.011077538132667542,0.0033121705055236816
1772557034899745000,7.0817451171875,-0.031091690063476562,0.01440662145614624,-0.007520154118537903
1772557034918518300,7.100518310546875,-0.03946971893310547,0.004701793193817139,-0.019120939075946808
1772557034937291500,7.11929150390625,-0.02989482879638672,0.010677829384803772,-0.009899638593196869
1772557034956064800,7.138064697265625,-0.02989673614501953,0.002269737422466278,-0.00706220418214798
1772557034974838000,7.156838134765625,-0.037079811096191406,0.009519241750240326,-0.005244359374046326
1772557034993611000,7.175611083984375,-0.031093597412109375,0.006301917135715485,0.008085280656814575
1772557035012384300,7.19438427734375,-0.02750396728515625,0.004078947007656097,0.011670425534248352
1772557035031157500,7.213157470703125,-0.03229045867919922,-0.001124843955039978,-0.000112973153591156
1772557035049930800,7.2319306640625,-0.02510833740234375,0.009695962071418762,-0.0015128105878829956
1772557035068704000,7.2507041015625,-0.027504920959472656,0.0023343563079833984,-0.002686828374862671
1772557035087477000,7.26947705078125,-0.029898643493652344,0.002397283911705017,-0.00025501102209091187
1772557035106250200,7.288250244140625,-0.029898643493652344,0.006249710917472839,0.0017651021480560303
1772557035125023500,7.3070234375,-0.029897689819335938,0.009850747883319855,0.0029718801379203796
1772557035143796700,7.325796630859375,-0.02271556854248047,-0.0030722692608833313,0.006806127727031708
1772557035162569700,7.34456982421875,-0.041871070861816406,0.005960457026958466,-0.0019496753811836243
1772557035181343000,7.363343017578125,-0.03229522705078125,0.0057738423347473145,-0.007795318961143494
1772557035200116200,7.3821162109375,-0.02631092071533203,0.011857196688652039,-0.007953442633152008
1772557035218889500,7.400889404296875,-0.03708457946777344,0.004491142928600311,-0.005573958158493042
1772557035237662500,7.419662353515625,-0.03708648681640625,0.001899026334285736,-0.003042571246623993
1772557035256435700,7.438435791015625,-0.0227203369140625,0.004854239523410797,0.005312375724315643
1772557035275209000,7.457208984375,-0.031101226806640625,0.0020762383937835693,0.003146253526210785
1772557035293982200,7.475982177734375,-0.02870464324951172,0.00941939651966095,0.00545763224363327
1772557035312755500,7.49475537109375,-0.03349494934082031,0.0042398422956466675,-0.0014399662613868713
1772557035331528400,7.513528564453125,-0.037085533142089844,0.004224613308906555,-0.0037093386054039
1772557035350301700,7.5323017578125,-0.033496856689453125,0.0064676254987716675,-0.010999910533428192
1772557035369075000,7.551074951171875,-0.032299041748046875,0.002844996750354767,-0.007504880428314209
1772557035387848200,7.56984814453125,-0.033496856689453125,0.005144290626049042,-0.007300190627574921
1772557035406621400,7.588621337890625,-0.02870655059814453,0.007646016776561737,0.0021149441599845886
1772557035425394400,7.60739453125,-0.03349494934082031,0.005178920924663544,0.0008963495492935181
1772557035444167700,7.626167724609375,-0.028707504272460938,0.0015399232506752014,0.00845286250114441
1772557035462941000,7.64494091796875,-0.02870941162109375,0.0012496933341026306,-0.004723474383354187
1772557035481714200,7.663714111328125,-0.033493995666503906,0.003783874213695526,-0.008110061287879944
1772557035500487400,7.6824873046875,-0.025114059448242188,0.009834632277488708,-0.006035268306732178
1772557035519260400,7.701260498046875,-0.029903411865234375,0.007287405431270599,-0.008437670767307281
1772557035538033700,7.72003369140625,-0.03229713439941406,0.0037204474210739136,-0.0036196261644363403
1772557035556807000,7.738806884765625,-0.032296180725097656,0.0051984116435050964,0.0011827647686004639
1772557035575580200,7.757580078125,-0.03588676452636719,0.0018401294946670532,0.006018161773681641
1772557035594353200,7.776353271484375,-0.02990245819091797,-0.0004672408103942871,0.004921071231365204
1772557035613126400,7.79512646484375,-0.04187202453613281,0.0054445043206214905,0.001044146716594696
1772557035631899600,7.813899658203125,-0.031097412109375,0.00426965206861496,0.0022516995668411255
1772557035650673000,7.8326728515625,-0.026307106018066406,0.006780683994293213,0.0036318227648735046
1772557035669446100,7.851446044921875,-0.028700828552246094,0.0029510334134101868,0.0014641135931015015
1772557035688219100,7.87021923828125,-0.029895782470703125,0.00760921835899353,-0.01282152533531189
1772557035706992400,7.888992431640625,-0.03468036651611328,0.00899447500705719,-0.006792239844799042
1772557035725765600,7.907765625,-0.033484458923339844,0.0065605416893959045,-0.012476451694965363
1772557035744539000,7.926538818359375,-0.027497291564941406,0.004242643713951111,-0.0003803521394729614
1772557035763312000,7.94531201171875,-0.03468036651611328,0.003071203827857971,-0.001743316650390625
1772557035782085000,7.964085205078125,-0.025102615356445312,0.003095768392086029,0.006650581955909729
1772557035800858400,7.9828583984375,-0.03587818145751953,0.0032500922679901123,0.012701109051704407
1772557035819631600,8.001631591796874,-0.02750110626220703,0.002863481640815735,0.0029857903718948364
1772557035838404900,8.02040478515625,-0.032288551330566406,0.0028879642486572266,-0.0029625818133354187
1772557035857178000,8.03917822265625,-0.02989482879638672,0.0041067227721214294,-0.007808566093444824
1772557035875951000,8.057951171875,-0.03228950500488281,0.004035241901874542,-0.015088506042957306
1772557035894724400,8.076724365234375,-0.02869892120361328,0.012397825717926025,-0.009194441139698029
1772557035913497600,8.09549755859375,-0.029897689819335938,0.005177155137062073,-0.0041715651750564575
1772557035932270800,8.114270751953125,-0.03229236602783203,0.004152067005634308,0.0017900466918945312
1772557035951044000,8.133044189453125,-0.03349018096923828,-0.0005667209625244141,0.014961190521717072
1772557035969817000,8.151817138671875,-0.029898643493652344,0.0007529184222221375,0.018342338502407074
1772557035988590300,8.17059033203125,-0.03468894958496094,0.0001652240753173828,0.008933410048484802
1772557036007363600,8.189363525390625,-0.03349018096923828,0.000139676034450531,-0.0006483942270278931
1772557036026136800,8.20813671875,-0.027504920959472656,0.004948221147060394,-0.006638377904891968
1772557036044910000,8.22691015625,-0.032294273376464844,0.004556402564048767,-0.014952987432479858
1772557036063683000,8.24568310546875,-0.029898643493652344,0.004931621253490448,-0.011362172663211823
1772557036082456300,8.264456298828126,-0.02869892120361328,0.003664441406726837,-0.011108659207820892
1772557036101229600,8.2832294921875,-0.033489227294921875,0.0062621235847473145,-0.001846224069595337
1772557036120002800,8.3020029296875,-0.03588390350341797,0.0028466060757637024,0.008779659867286682
1772557036138776000,8.320776123046874,-0.033486366271972656,0.005676843225955963,0.01360999047756195
1772557036157549000,8.339549072265624,-0.025107383728027344,0.004351750016212463,0.006484486162662506
1772557036176322300,8.358322265625,-0.02390766143798828,0.0016845837235450745,0.0019775256514549255
1772557036195095600,8.377095458984375,-0.03946876525878906,0.006285838782787323,-0.002925083041191101
1772557036213868800,8.395868896484375,-0.031087875366210938,0.00863560289144516,-0.005172304809093475
1772557036232642000,8.41464208984375,-0.027497291564941406,0.0028250887989997864,-0.002656318247318268
1772557036251415000,8.4334150390625,-0.0298919677734375,0.0038376376032829285,-0.00626557320356369
1772557036270188300,8.452188232421875,-0.03228759765625,0.0025532320141792297,-0.008672788739204407
1772557036288961500,8.47096142578125,-0.024059295654296875,0.00968855619430542,-0.0017192661762237549
1772557036307734800,8.48973486328125,-0.03378772735595703,0.00008744746446609497,0.0009332746267318726
1772557036326507800,8.5085078125,-0.03393840789794922,0.006201945245265961,-0.0004012659192085266
1772557036345281000,8.527281005859376,-0.031395912170410156,0.003660924732685089,0.0006754845380783081
1772557036364054300,8.54605419921875,-0.025559425354003906,0.009599350392818451,0.0066818296909332275
1772557036382827500,8.56482763671875,-0.036484718322753906,0.010689616203308105,0.006498999893665314
1772557036401600800,8.583600830078124,-0.036334991455078125,0.002279132604598999,0.0043688565492630005
1772557036420373800,8.602373779296874,-0.03020191192626953,0.0034443289041519165,-0.000494733452796936
1772557036439147000,8.62114697265625,-0.026906967163085938,0.008046627044677734,-0.008749060332775116
1772557036457920300,8.639920166015624,-0.030496597290039062,0.0022921785712242126,-0.004916831851005554
1772557036476693500,8.658693603515625,-0.024509429931640625,0.007001504302024841,-0.014429815113544464
1772557036495466800,8.677466796875,-0.032591819763183594,0.00586044043302536,-0.0025298893451690674
1772557036514239700,8.69623974609375,-0.028702735900878906,-0.0022390931844711304,0.006898321211338043
1772557036533013000,8.715012939453125,-0.020322799682617188,0.005020596086978912,0.007962293922901154
1772557036551786200,8.7337861328125,-0.02750682830810547,0.004145458340644836,0.018615856766700745
1772557036570559500,8.7525595703125,-0.03349113464355469,0.007195830345153809,0.010213591158390045
1772557036589332500,8.77133251953125,-0.02989959716796875,0.002281472086906433,-0.0004263147711753845
1772557036608105700,8.790105712890625,-0.027504920959472656,0.014196932315826416,-0.012633100152015686
1772557036626879000,8.80887890625,-0.03229236602783203,0.006735458970069885,-0.017199501395225525
1772557036645652200,8.82765234375,-0.031095504760742188,0.005861200392246246,-0.0029169097542762756
1772557036664425200,8.84642529296875,-0.025110244750976562,0.010605394840240479,-0.012646175920963287
1772557036683198500,8.865198486328126,-0.03468894958496094,0.00610090047121048,0.000462949275970459
1772557036701971700,8.8839716796875,-0.028708457946777344,0.002560362219810486,0.0037562474608421326
1772557036720745000,8.902744873046874,-0.027509689331054688,0.006329722702503204,0.012024149298667908
1772557036739518200,8.921518310546874,-0.025116920471191406,0.00521443784236908,0.01189955323934555
1772557036758291200,8.940291259765624,-0.02631378173828125,0.0075324103236198425,0.0011278092861175537
1772557036777064400,8.959064453125,-0.027513504028320312,0.008691318333148956,0.0033184289932250977
1772557036795837700,8.977837646484375,-0.02272510528564453,0.006018683314323425,-0.008676663041114807
1772557036814610700,8.996610595703125,-0.028711318969726562,0.0020837485790252686,-0.012214168906211853
1772557036833384000,9.015384033203125,-0.02871227264404297,0.004335328936576843,-0.004988878965377808
1772557036852157200,9.0341572265625,-0.028710365295410156,0.006907619535923004,-0.010827213525772095
1772557036870930400,9.052930419921875,-0.025119781494140625,0.013296812772750854,0.008386775851249695
1772557036889703700,9.07170361328125,-0.03334808349609375,-0.0027192682027816772,-0.0034093037247657776
1772557036908476700,9.0904765625,-0.028263092041015625,0.004824474453926086,0.003533795475959778
1772557036927250000,9.10925,-0.02347564697265625,0.0013227462768554688,0.004822865128517151
1772557036946023200,9.128023193359375,-0.030508041381835938,0.00016248971223831177,0.010593771934509277
1772557036964796200,9.146796142578125,-0.027068138122558594,0.0033709928393363953,-0.0002048686146736145
1772557036983569400,9.1655693359375,-0.020035743713378906,0.005887053906917572,-0.0013810396194458008
1772557037002342700,9.1843427734375,-0.017493247985839844,0.0030531510710716248,-0.007429562509059906
1772557037021116000,9.203115966796876,-0.029613494873046875,0.004282079637050629,-0.004955992102622986
1772557037039889000,9.221888916015626,-0.029913902282714844,0.012612350285053253,-0.007570520043373108
1772557037058662100,9.240662109375,-0.019888877868652344,0.0035126954317092896,0.002062089741230011
1772557037077435400,9.259435302734374,-0.030661582946777344,0.009520865976810455,0.0069054290652275085
1772557037096208600,9.278208740234374,-0.03051280975341797,-0.000012673437595367432,0.01281476765871048
1772557037114981600,9.296981689453125,-0.026922225952148438,0.0009563714265823364,0.00439288467168808
1772557037133755000,9.3157548828125,-0.022136688232421875,0.0008780285716056824,-0.00645359605550766
1772557037152528000,9.33452783203125,-0.029318809509277344,0.0019011348485946655,-0.006533205509185791
1772557037171301000,9.353301025390625,-0.029320716857910156,0.007641047239303589,-0.012470141053199768
1772557037190074400,9.372074462890625,-0.02333545684814453,0.0022474080324172974,0.0005380213260650635
1772557037208847600,9.39084765625,-0.030517578125,0.005915708839893341,0.00028670579195022583
1772557037227620600,9.40962060546875,-0.026929855346679688,0.004315264523029327,0.0015662088990211487
1772557037246393900,9.428393798828125,-0.026927947998046875,0.001997649669647217,0.004172667860984802
1772557037265167000,9.4471669921875,-0.023337364196777344,0.003168553113937378,0.005428731441497803
1772557037283940000,9.465940185546875,-0.02692890167236328,0.010201729834079742,-0.00041944533586502075
1772557037302713300,9.48471337890625,-0.03411293029785156,0.0072660744190216064,-0.008866138756275177
1772557037321486600,9.503486572265626,-0.023339271545410156,0.0052511319518089294,-0.0005317777395248413
1772557037340259600,9.522259521484376,-0.035309791564941406,0.0065630897879600525,0.0004750937223434448
1772557037359032800,9.54103271484375,-0.03052234649658203,0.006172947585582733,-0.001740872859954834
1772557037377806000,9.55980615234375,-0.023339271545410156,0.008786641061306,0.0004575103521347046
1772557037396579000,9.5785791015625,-0.028125762939453125,0.0004552379250526428,-0.00046487897634506226
1772557037415352300,9.597352294921874,-0.025732040405273438,0.00885029137134552,-0.0028987526893615723
1772557037434125600,9.61612548828125,-0.02932262420654297,0.00418815016746521,0.0008207708597183228
1772557037452898600,9.634898681640625,-0.02573394775390625,0.006078965961933136,-0.003982223570346832
1772557037471671800,9.653671875,-0.028131484985351562,0.003843270242214203,0.004185661673545837
1772557037490444800,9.67244482421875,-0.01735973358154297,0.0025636404752731323,0.0005607903003692627
1772557037509218000,9.691218017578125,-0.02454090118408203,0.008581429719924927,0.0017023831605911255
1772557037527991300,9.7099912109375,-0.029326438903808594,0.0096503347158432,-0.004300631582736969
1772557037546764300,9.728764404296875,-0.023340225219726562,0.0013602450489997864,-0.006526261568069458
1772557037565537500,9.74753759765625,-0.024542808532714844,0.009172141551971436,-0.0004895776510238647
1772557037584310800,9.766310791015625,-0.02335071563720703,0.008139155805110931,-0.007192447781562805
1772557037603083800,9.785083740234375,-0.026945114135742188,-0.0004965588450431824,-0.002205304801464081
1772557037621857000,9.80385693359375,-0.017368316650390625,0.011694543063640594,-0.0010030195116996765
1772557037640630000,9.822630126953126,-0.018564224243164062,0.005638353526592255,0.0011851787567138672
1772557037659403300,9.8414033203125,-0.02694225311279297,0.0059785395860672,0.0024236291646957397
1772557037678176500,9.860176513671876,-0.02214813232421875,0.008059032261371613,0.0010002702474594116
1772557037696949500,9.878949462890626,-0.0269317626953125,0.006263256072998047,0.0016715377569198608
1772557037715722800,9.89772265625,-0.01616191864013672,0.006172530353069305,-0.004611648619174957
