time,seconds_elapsed,z,y,x
1772557027966744600,0.14874462890625,-0.00015271181473508477,0.0007635590736754239,0.0006108472589403391
1772557027994904300,0.176904296875,-0.00015271181473508477,0.00015271181473508477,0.0006108472589403391
1772557028013677300,0.19567724609375,-0.00015271181473508477,-0.0010689827613532543,0
1772557028032450600,0.214450439453125,-0.00015271181473508477,-0.0010689827613532543,0.0006108472589403391
1772557028051223800,0.233223876953125,0.0004581354442052543,-0.0004581354442052543,0.0006108472589403391
1772557028069996800,0.251996826171875,0.0010689827613532543,0.00015271181473508477,0
1772557028088770000,0.27077001953125,-0.00015271181473508477,0.00015271181473508477,0
1772557028107543000,0.28954296875,0.0004581354442052543,-0.0006108472589403391,-0.0006108472589403391
1772557028126316300,0.30831640625,-0.00015271181473508477,0.00015271181473508477,0
1772557028145089500,0.327089599609375,0.0004581354442052543,0.00015271181473508477,0.0006108472589403391
1772557028163862500,0.345862548828125,-0.0007635590736754239,-0.0004581354442052543,0
1772557028182635800,0.3646357421875,-0.00015271181473508477,-0.0012216945178806782,-0.0012216945178806782
1772557028201409000,0.383408935546875,-0.00015271181473508477,0,-0.0012216945178806782
1772557028220182000,0.40218212890625,-0.00015271181473508477,0.00015271181473508477,-0.0006108472589403391
1772557028238955300,0.420955322265625,0.0004581354442052543,0.0007635590736754239,0
1772557028257728300,0.439728271484375,0.0004581354442052543,0,-0.0006108472589403391
1772557028276501500,0.45850146484375,0.0004581354442052543,0.00015271181473508477,0
1772557028295274800,0.477274658203125,0.0004581354442052543,0.001374406274408102,0
1772557028314047700,0.4960478515625,-0.00015271181473508477,0.0006108472589403391,-0.0006108472589403391
1772557028332821000,0.514821044921875,-0.00015271181473508477,-0.0004581354442052543,0
1772557028351594200,0.53359423828125,-0.0007635590736754239,0.0006108472589403391,-0.0006108472589403391
1772557028370367200,0.5523671875,0.0004581354442052543,-0.0006108472589403391,-0.0006108472589403391
1772557028389140500,0.571140380859375,0.0004581354442052543,0.0007635590736754239,0
1772557028407913500,0.58991357421875,0.0004581354442052543,-0.0004581354442052543,0
1772557028426686700,0.608686767578125,-0.00015271181473508477,0.00015271181473508477,0.0006108472589403391
1772557028445460000,0.6274599609375,-0.00015271181473508477,0.0006108472589403391,-0.0006108472589403391
1772557028464233000,0.64623291015625,-0.00015271181473508477,0.0007635590736754239,0.0006108472589403391
1772557028483006200,0.665006103515625,-0.00015271181473508477,-0.0004581354442052543,0
1772557028501779500,0.683779541015625,0.0004581354442052543,-0.0004581354442052543,-0.0006108472589403391
1772557028520552400,0.702552490234375,-0.00015271181473508477,0.00015271181473508477,0.0006108472589403391
1772557028539325700,0.72132568359375,-0.00015271181473508477,-0.0010689827613532543,0
1772557028558099000,0.740098876953125,-0.00015271181473508477,0.0006108472589403391,-0.0006108472589403391
1772557028576872000,0.758871826171875,-0.00015271181473508477,-0.0004581354442052543,0.0006108472589403391
1772557028595645200,0.777645263671875,-0.00015271181473508477,0.0007635590736754239,0
1772557028614418200,0.796418212890625,-0.00015271181473508477,-0.0004581354442052543,0
1772557028633191400,0.81519140625,-0.00015271181473508477,0.00015271181473508477,0
1772557028651964700,0.833964599609375,-0.00015271181473508477,-0.0004581354442052543,0
1772557028670737700,0.852737548828125,-0.00015271181473508477,0,-0.0006108472589403391
1772557028689511000,0.871510986328125,-0.00015271181473508477,0.0007635590736754239,0
1772557028708284200,0.8902841796875,0.0004581354442052543,0.0006108472589403391,-0.0006108472589403391
1772557028727057200,0.90905712890625,0.0004581354442052543,0.0006108472589403391,-0.0012216945178806782
1772557028745830400,0.927830322265625,-0.00015271181473508477,0,-0.0006108472589403391
1772557028764603400,0.946603271484375,-0.00015271181473508477,0.00015271181473508477,0
1772557028783376600,0.965376708984375,0.0010689827613532543,0,-0.0006108472589403391
1772557028802150000,0.98414990234375,0.0004581354442052543,0,-0.0006108472589403391
1772557028820923000,1.0029228515625,-0.00015271181473508477,0.00015271181473508477,0.0006108472589403391
1772557028839696100,1.021696044921875,-0.00015271181473508477,0.0007635590736754239,0.0006108472589403391
1772557028858469400,1.040469482421875,-0.00015271181473508477,0.0007635590736754239,0.0006108472589403391
1772557028877242400,1.059242431640625,-0.00015271181473508477,0,-0.0018325417768210173
1772557028896015600,1.078015625,-0.00015271181473508477,0.00015271181473508477,-0.0006108472589403391
1772557028914788900,1.096788818359375,-0.00015271181473508477,0.00015271181473508477,0
1772557028933561900,1.115561767578125,-0.00015271181473508477,0.00015271181473508477,0.0006108472589403391
1772557028952335000,1.134335205078125,0.0004581354442052543,0.00015271181473508477,0
1772557028971108000,1.153108154296875,-0.00015271181473508477,0.0007635590736754239,0
1772557028989881300,1.17188134765625,-0.00015271181473508477,0.001374406274408102,0.0018325417768210173
1772557029008654600,1.190654541015625,-0.00015271181473508477,0.0007635590736754239,0
1772557029027427600,1.209427490234375,0.0004581354442052543,0.00015271181473508477,0
1772557029046200800,1.228200927734375,-0.00015271181473508477,0.00015271181473508477,0.0006108472589403391
1772557029064974000,1.24697412109375,0.0010689827613532543,0.0007635590736754239,0.0006108472589403391
1772557029083747000,1.2657470703125,-0.00015271181473508477,0.00015271181473508477,0
1772557029102520300,1.284520263671875,0.0004581354442052543,-0.0004581354442052543,-0.0012216945178806782
1772557029121293600,1.30329345703125,0.0004581354442052543,0,-0.0006108472589403391
1772557029140066600,1.322066650390625,-0.00015271181473508477,-0.0004581354442052543,0
1772557029158839800,1.34083984375,-0.00015271181473508477,-0.0004581354442052543,0.0006108472589403391
1772557029177613000,1.359613037109375,0.0004581354442052543,0.0007635590736754239,0.0006108472589403391
1772557029196386000,1.378385986328125,-0.00015271181473508477,-0.0004581354442052543,-0.0012216945178806782
1772557029215159300,1.3971591796875,0.0004581354442052543,0.00015271181473508477,0.0006108472589403391
1772557029233932500,1.4159326171875,-0.00015271181473508477,0.0007635590736754239,0.0006108472589403391
1772557029252705500,1.43470556640625,-0.0007635590736754239,0.00015271181473508477,0
1772557029271478800,1.453478759765625,0.0010689827613532543,0,-0.0006108472589403391
1772557029290251800,1.472251708984375,0.0004581354442052543,0.0007635590736754239,0.0006108472589403391
1772557029309025000,1.49102490234375,0.0004581354442052543,-0.0004581354442052543,0
1772557029327798300,1.50979833984375,0.0004581354442052543,0.0007635590736754239,-0.0006108472589403391
1772557029346571300,1.5285712890625,-0.00015271181473508477,0.0006108472589403391,-0.0006108472589403391
1772557029365344500,1.547344482421875,-0.00015271181473508477,0.00015271181473508477,0
1772557029384117800,1.56611767578125,-0.0007635590736754239,0.0007635590736754239,0.0006108472589403391
1772557029402890800,1.584890869140625,-0.00015271181473508477,0,-0.0012216945178806782
1772557029421664000,1.6036640625,-0.00015271181473508477,0.00015271181473508477,0
1772557029440437200,1.622437255859375,0.0004581354442052543,0.0007635590736754239,-0.0006108472589403391
1772557029459210200,1.641210205078125,0.0004581354442052543,0.00015271181473508477,0
1772557029477983500,1.6599833984375,-0.00015271181473508477,0.0006108472589403391,-0.0006108472589403391
1772557029496756700,1.6787568359375,0.0004581354442052543,-0.0006108472589403391,-0.0012216945178806782
1772557029515529700,1.69752978515625,-0.00015271181473508477,0.00015271181473508477,0.0006108472589403391
1772557029534303000,1.716302978515625,-0.00015271181473508477,0,-0.0012216945178806782
1772557029553076200,1.735076171875,-0.00015271181473508477,0.0007635590736754239,-0.0006108472589403391
1772557029571849200,1.75384912109375,0.0004581354442052543,-0.0004581354442052543,0.0012216945178806782
1772557029590622500,1.77262255859375,-0.00015271181473508477,0.00015271181473508477,0.0006108472589403391
1772557029609395700,1.791395751953125,-0.00015271181473508477,0.00015271181473508477,0.0006108472589403391
1772557029628168700,1.810168701171875,-0.00030542362947016954,-0.0004581354442052543,0.0007635590736754239
1772557029646942000,1.82894189453125,-0.00030542362947016954,-0.0010689827613532543,0.001374406274408102
1772557029665715200,1.847715087890625,-0.00030542362947016954,0.0006108472589403391,0
1772557029684488200,1.86648828125,0.00030542362947016954,0.0007635590736754239,0.0007635590736754239
1772557029703261400,1.885261474609375,-0.0009162708884105086,0.0007635590736754239,0.0007635590736754239
1772557029722034700,1.90403466796875,0.00030542362947016954,0.0006108472589403391,-0.0004581354442052543
1772557029740807700,1.9228076171875,-0.00030542362947016954,0,-0.0004581354442052543
1772557029759581000,1.941580810546875,0.00030542362947016954,-0.0004581354442052543,0.0007635590736754239
1772557029778354200,1.960354248046875,0.00030542362947016954,0.00015271181473508477,0.001374406274408102
1772557029797127200,1.979127197265625,-0.00030542362947016954,-0.0010689827613532543,0.00015271181473508477
1772557029815900400,1.997900390625,-0.00030542362947016954,0.0006108472589403391,-0.0006108472589403391
1772557029834673700,2.016673583984375,0.0009162708884105086,-0.0006108472589403391,0.00015271181473508477
1772557029853446700,2.03544677734375,0.0009162708884105086,-0.0006108472589403391,-0.0010689827613532543
1772557029872220000,2.054219970703125,-0.0009162708884105086,-0.0004581354442052543,0.0007635590736754239
1772557029890993200,2.0729931640625,-0.00030542362947016954,0.00015271181473508477,0.0007635590736754239
1772557029909766400,2.091766357421875,0.0009162708884105086,-0.0006108472589403391,-0.0010689827613532543
1772557029928539400,2.110539306640625,-0.00030542362947016954,-0.0006108472589403391,-0.0004581354442052543
1772557029947312600,2.129312744140625,-0.0009162708884105086,-0.0004581354442052543,0.00015271181473508477
1772557029966085600,2.148085693359375,0.0009162708884105086,0,-0.0010689827613532543
1772557029984859000,2.16685888671875,-0.00030542362947016954,0.0018325417768210173,-0.0012216945178806782
1772557030003632000,2.185632080078125,-0.00030542362947016954,-0.0004581354442052543,0.0007635590736754239
1772557030022405400,2.2044052734375,0.00030542362947016954,0.0006108472589403391,0
1772557030041178400,2.223178466796875,0.00030542362947016954,-0.0006108472589403391,-0.0004581354442052543
1772557030059951600,2.24195166015625,0.00030542362947016954,-0.0006108472589403391,-0.0004581354442052543
1772557030078724900,2.260724853515625,-0.00030542362947016954,0.0006108472589403391,0.00015271181473508477
1772557030097497900,2.279497802734375,-0.00030542362947016954,0,0
1772557030116271000,2.29827099609375,-0.00030542362947016954,-0.0006108472589403391,-0.0010689827613532543
1772557030135044400,2.31704443359375,0.0009162708884105086,-0.0006108472589403391,0.00015271181473508477
1772557030153817300,2.3358173828125,-0.00030542362947016954,-0.0006108472589403391,-0.0004581354442052543
1772557030172590600,2.354590576171875,-0.00030542362947016954,0,-0.0004581354442052543
1772557030191363800,2.37336376953125,-0.0009162708884105086,-0.0006108472589403391,-0.0004581354442052543
1772557030210136800,2.39213671875,-0.0009162708884105086,0,0.00015271181473508477
1772557030228910000,2.41091015625,0.0009162708884105086,0,0.00015271181473508477
1772557030247683300,2.429683349609375,0.00030542362947016954,-0.0004581354442052543,0.00015271181473508477
1772557030266456300,2.448456298828125,-0.00030542362947016954,-0.0012216945178806782,-0.0004581354442052543
1772557030285229600,2.4672294921875,-0.00030542362947016954,0,0.00015271181473508477
1772557030304002800,2.4860029296875,-0.00030542362947016954,0,-0.0004581354442052543
1772557030322776000,2.504776123046875,-0.0009162708884105086,0.0007635590736754239,0.0007635590736754239
1772557030341549000,2.523549072265625,0.00030542362947016954,-0.0010689827613532543,0.0007635590736754239
1772557030360322300,2.542322265625,0.0009162708884105086,0.0007635590736754239,0.0007635590736754239
1772557030379095600,2.561095458984375,-0.00030542362947016954,0.0006108472589403391,0
1772557030397868500,2.57986865234375,-0.00030542362947016954,-0.0010689827613532543,0.0007635590736754239
1772557030416641800,2.598641845703125,-0.0015271181473508477,0.0006108472589403391,-0.0012216945178806782
1772557030435415000,2.6174150390625,-0.0015271181473508477,0.0006108472589403391,-0.0004581354442052543
1772557030454188000,2.63618798828125,-0.00030542362947016954,0.00015271181473508477,0.00015271181473508477
1772557030472961300,2.654961181640625,0.00030542362947016954,0,-0.0010689827613532543
1772557030491734500,2.673734619140625,0.00030542362947016954,0,-0.0004581354442052543
1772557030510507800,2.6925078125,-0.00030542362947016954,-0.0010689827613532543,0.001374406274408102
1772557030529280800,2.71128076171875,-0.00030542362947016954,-0.0006108472589403391,-0.0010689827613532543
1772557030548054000,2.730053955078125,0.00030542362947016954,0.0012216945178806782,0
1772557030566827300,2.7488271484375,-0.00030542362947016954,0.0012216945178806782,-0.0012216945178806782
1772557030585600300,2.767600341796875,0.0009162708884105086,-0.0006108472589403391,-0.0010689827613532543
1772557030604373500,2.78637353515625,-0.00030542362947016954,0.00015271181473508477,0.00015271181473508477
1772557030623146800,2.805146728515625,0.00030542362947016954,0.00015271181473508477,0.00015271181473508477
1772557030641919700,2.823919677734375,-0.00030542362947016954,-0.0004581354442052543,0.00015271181473508477
1772557030660693000,2.84269287109375,0.00030542362947016954,-0.0004581354442052543,0.0007635590736754239
1772557030679466200,2.86146630859375,-0.00030542362947016954,0.0012216945178806782,-0.0012216945178806782
1772557030698239500,2.880239501953125,-0.00030542362947016954,0.001374406274408102,0.0007635590736754239
1772557030717012500,2.899012451171875,-0.00030542362947016954,-0.0004581354442052543,0.00015271181473508477
1772557030735785700,2.91778564453125,-0.00030542362947016954,-0.0004581354442052543,0.0007635590736754239
1772557030754559000,2.93655908203125,0.00030542362947016954,0.0012216945178806782,-0.0004581354442052543
1772557030773332200,2.955332275390625,0.00030542362947016954,0.0007635590736754239,0.0007635590736754239
1772557030792105200,2.974105224609375,0.0009162708884105086,0.0006108472589403391,0.00015271181473508477
1772557030810878500,2.99287841796875,-0.00030542362947016954,-0.0004581354442052543,0.001374406274408102
1772557030829651700,3.011651611328125,-0.00030542362947016954,0,0.00015271181473508477
1772557030848424700,3.0304248046875,-0.00030542362947016954,0,0.0007635590736754239
1772557030867198000,3.049197998046875,-0.00030542362947016954,0.0012216945178806782,0.00015271181473508477
1772557030885971200,3.06797119140625,0.00030542362947016954,0.0006108472589403391,0.00015271181473508477
1772557030904744400,3.086744384765625,0.00030542362947016954,0.0006108472589403391,0.00015271181473508477
1772557030923517400,3.105517333984375,0.00030542362947016954,0.0007635590736754239,0.0007635590736754239
1772557030942290700,3.124290771484375,0.0009162708884105086,0.0007635590736754239,0.0007635590736754239
1772557030961064000,3.14306396484375,0.0009162708884105086,0.00015271181473508477,0.001985253533348441
1772557030979837200,3.161837158203125,0.00030542362947016954,-0.0004581354442052543,0.0038177953101694584
1772557030998610200,3.180610107421875,0.00030542362947016954,0.00015271181473508477,0.0007635590736754239
1772557031017383400,3.199383544921875,0.0009162708884105086,-0.0006108472589403391,0.00015271181473508477
1772557031036156400,3.218156494140625,0.0009162708884105086,0.00015271181473508477,0.0032069480512291193
1772557031054929700,3.2369296875,0.00030542362947016954,-0.0004581354442052543,0.001374406274408102
1772557031073703000,3.255702880859375,0.00030542362947016954,0.0007635590736754239,0.0007635590736754239
1772557031092476200,3.27447607421875,-0.00030542362947016954,-0.0004581354442052543,0.001985253533348441
1772557031111249400,3.29324951171875,0.00030542362947016954,0.00015271181473508477,0.001985253533348441
1772557031130022400,3.3120224609375,0.00030542362947016954,-0.0006108472589403391,0.00015271181473508477
1772557031148795600,3.330795654296875,0.00030542362947016954,0,-0.0004581354442052543
1772557031167569000,3.34956884765625,0.00030542362947016954,0.0006108472589403391,0.00015271181473508477
1772557031186342000,3.368341796875,-0.00030542362947016954,0.00015271181473508477,0.0007635590736754239
1772557031205115100,3.387115234375,-0.00030542362947016954,-0.0004581354442052543,0.0007635590736754239
1772557031223888400,3.405888427734375,0.0009162708884105086,0.0007635590736754239,0.0007635590736754239
1772557031242661600,3.42466162109375,-0.00030542362947016954,0.0006108472589403391,-0.0004581354442052543
1772557031261434600,3.4434345703125,-0.00030542362947016954,0,0.00015271181473508477
1772557031280208000,3.462207763671875,-0.00030542362947016954,0.00015271181473508477,0.00015271181473508477
1772557031298981000,3.480981201171875,-0.00030542362947016954,-0.0012216945178806782,-0.0004581354442052543
1772557031317754400,3.49975439453125,-0.00030542362947016954,-0.0012216945178806782,-0.0006108472589403391
1772557031336527400,3.51852734375,0.0009162708884105086,0,0.0006108472589403391
1772557031355300600,3.537300537109375,-0.00030542362947016954,-0.0004581354442052543,0.00015271181473508477
1772557031374073900,3.556073974609375,-0.00030542362947016954,0.0006108472589403391,0.00015271181473508477
1772557031392846800,3.574846923828125,-0.00030542362947016954,0.0007635590736754239,-0.00015271181473508477
1772557031411620000,3.5936201171875,-0.00030542362947016954,0.00015271181473508477,-0.00015271181473508477
1772557031430393300,3.612393310546875,0.00030542362947016954,0.0007635590736754239,-0.00015271181473508477
1772557031449166600,3.63116650390625,0.00030542362947016954,0.00015271181473508477,0.0010689827613532543
1772557031467939800,3.64993994140625,0.00030542362947016954,-0.0004581354442052543,0.0004581354442052543
1772557031486712800,3.668712890625,0.00030542362947016954,0.00015271181473508477,0.0004581354442052543
1772557031505486000,3.687486083984375,0.0009162708884105086,-0.0004581354442052543,0.0004581354442052543
1772557031524259300,3.70625927734375,-0.00030542362947016954,0.00015271181473508477,-0.00015271181473508477
1772557031543032300,3.7250322265625,0.00030542362947016954,-0.0004581354442052543,0.0004581354442052543
1772557031561805600,3.7438056640625,-0.00030542362947016954,0.0007635590736754239,-0.00015271181473508477
1772557031580578800,3.762578857421875,-0.00030542362947016954,0.00015271181473508477,-0.00015271181473508477
1772557031599352000,3.78135205078125,-0.00030542362947016954,0.0006108472589403391,-0.0007635590736754239
1772557031618125000,3.800125,-0.00030542362947016954,0.0007635590736754239,0.0004581354442052543
1772557031636898300,3.818898193359375,0.00030542362947016954,0,-0.0007635590736754239
1772557031655671600,3.837671630859375,0.00030542362947016954,-0.0004581354442052543,-0.00015271181473508477
1772557031674444500,3.856444580078125,-0.00030542362947016954,0.00015271181473508477,-0.00015271181473508477
1772557031693217800,3.8752177734375,0.00030542362947016954,-0.0004581354442052543,0.0004581354442052543
1772557031711991000,3.893990966796875,0.00030542362947016954,0.00015271181473508477,-0.00015271181473508477
1772557031730764300,3.912764404296875,0.00030542362947016954,-0.0010689827613532543,-0.0007635590736754239
1772557031749537500,3.93153759765625,-0.00030542362947016954,0.00015271181473508477,-0.0007635590736754239
1772557031768310500,3.950310546875,-0.00030542362947016954,-0.0010689827613532543,-0.00015271181473508477
1772557031787083800,3.969083740234375,0.00030542362947016954,-0.0004581354442052543,0.0004581354442052543
1772557031805857000,3.98785693359375,-0.00030542362947016954,-0.0004581354442052543,-0.0007635590736754239
1772557031824630000,4.006630126953125,-0.00030542362947016954,-0.0004581354442052543,0.0004581354442052543
1772557031843403300,4.0254033203125,0.00030542362947016954,0.00015271181473508477,-0.00015271181473508477
1772557031862176500,4.044176513671875,-0.00030542362947016954,0.00015271181473508477,-0.0007635590736754239
1772557031880949800,4.06294970703125,0.00030542362947016954,-0.0004581354442052543,-0.001374406274408102
1772557031899723000,4.081722900390625,-0.00030542362947016954,0.0007635590736754239,0.0004581354442052543
1772557031918496000,4.10049609375,0.00030542362947016954,-0.0004581354442052543,0.0004581354442052543
1772557031937269200,4.119269287109375,-0.00030542362947016954,0.0007635590736754239,0.0016798300202935934
1772557031956042500,4.13804248046875,-0.0009162708884105086,0,-0.0007635590736754239
1772557031974815500,4.1568154296875,0.00030542362947016954,0.0007635590736754239,-0.00015271181473508477
1772557031993588700,4.175588623046875,0.00030542362947016954,-0.0004581354442052543,-0.00015271181473508477
1772557032012362000,4.194362060546875,-0.00030542362947016954,0.0006108472589403391,-0.0007635590736754239
1772557032031135200,4.21313525390625,-0.0009162708884105086,0.00015271181473508477,0.0004581354442052543
1772557032049908500,4.231908447265625,-0.00030542362947016954,-0.0004581354442052543,-0.0007635590736754239
1772557032068681500,4.250681396484375,0.00030542362947016954,-0.0010689827613532543,-0.00015271181473508477
1772557032087454700,4.269454833984375,0.00030542362947016954,0.00015271181473508477,0.0010689827613532543
1772557032106228000,4.28822802734375,0.0009162708884105086,-0.0010689827613532543,0.0004581354442052543
1772557032125001000,4.3070009765625,-0.00030542362947016954,0.00015271181473508477,-0.00015271181473508477
1772557032143774200,4.325774169921875,-0.00030542362947016954,0.00015271181473508477,-0.00015271181473508477
1772557032162547500,4.34454736328125,-0.00030542362947016954,-0.0004581354442052543,-0.00015271181473508477
1772557032181320700,4.36332080078125,-0.00030542362947016954,-0.0004581354442052543,-0.00015271181473508477
1772557032200094000,4.382093994140625,-0.00030542362947016954,0.00015271181473508477,-0.001374406274408102
1772557032218867000,4.400866943359375,-0.00030542362947016954,0.00015271181473508477,0.0010689827613532543
1772557032237640200,4.41964013671875,-0.00030542362947016954,0.0007635590736754239,-0.00015271181473508477
1772557032256413400,4.438413330078125,-0.0009162708884105086,-0.0010689827613532543,-0.001374406274408102
1772557032275186400,4.4571865234375,-0.00030542362947016954,-0.0016798300202935934,-0.00015271181473508477
1772557032293959700,4.475959716796875,-0.00030542362947016954,0.00015271181473508477,-0.00015271181473508477
1772557032312733000,4.49473291015625,-0.00030542362947016954,0.0007635590736754239,-0.00015271181473508477
1772557032331506200,4.513506103515625,-0.0009162708884105086,0.0007635590736754239,-0.0007635590736754239
1772557032350279400,4.532279541015625,-0.00030542362947016954,0.0007635590736754239,-0.0007635590736754239
1772557032369052400,4.551052490234375,0.00030542362947016954,-0.0004581354442052543,0.0010689827613532543
1772557032387825700,4.56982568359375,0.0009162708884105086,-0.0004581354442052543,0.0004581354442052543
1772557032406599000,4.588598876953125,0.00030542362947016954,-0.0010689827613532543,-0.0007635590736754239
1772557032425372200,4.6073720703125,-0.00030542362947016954,-0.0010689827613532543,0.0004581354442052543
1772557032444145200,4.626145263671875,-0.00030542362947016954,-0.0004581354442052543,-0.00015271181473508477
1772557032462918400,4.64491845703125,0.00030542362947016954,-0.0016798300202935934,0.0010689827613532543
1772557032481691600,4.663691650390625,-0.00030542362947016954,-0.0004581354442052543,-0.0007635590736754239
1772557032500464600,4.682464599609375,0.00030542362947016954,0.00015271181473508477,-0.00015271181473508477
1772557032519238000,4.70123779296875,0.0009162708884105086,0,-0.0007635590736754239
1772557032538011100,4.72001123046875,-0.00030542362947016954,-0.0004581354442052543,-0.0007635590736754239
1772557032556784400,4.738784423828125,-0.0009162708884105086,0.00015271181473508477,0.0004581354442052543
1772557032575557600,4.7575576171875,-0.0009162708884105086,0.00015271181473508477,0.0004581354442052543
1772557032594330600,4.77633056640625,-0.00030542362947016954,0,-0.0007635590736754239
1772557032613103900,4.795103759765625,-0.00030542362947016954,-0.0004581354442052543,-0.00015271181473508477
1772557032631877000,4.813877197265625,-0.00030542362947016954,-0.0010689827613532543,0.0010689827613532543
1772557032650650000,4.832650146484375,0.00030542362947016954,-0.0004581354442052543,0.0004581354442052543
1772557032669423400,4.85142333984375,0.00030542362947016954,0.0007635590736754239,-0.00015271181473508477
1772557032688196600,4.870196533203125,-0.00030542362947016954,0.0007635590736754239,0.0004581354442052543
1772557032706969900,4.888969970703125,-0.0009162708884105086,0.0012216945178806782,-0.0007635590736754239
1772557032725743000,4.9077431640625,0.00030542362947016954,0.001374406274408102,-0.0007635590736754239
1772557032744516000,4.92651611328125,-0.00030542362947016954,-0.0004581354442052543,0.0004581354442052543
1772557032763289300,4.945289306640625,-0.00030542362947016954,-0.0010689827613532543,-0.0007635590736754239
1772557032782062600,4.9640625,-0.00030542362947016954,0.0012216945178806782,-0.001374406274408102
1772557032800835800,4.9828359375,0.0009162708884105086,-0.0010689827613532543,-0.001374406274408102
1772557032819608800,5.00160888671875,-0.00030542362947016954,-0.0004581354442052543,0.0004581354442052543
1772557032838382000,5.020382080078125,-0.00030542362947016954,-0.0004581354442052543,-0.00015271181473508477
1772557032857155300,5.0391552734375,0.00030542362947016954,0.0007635590736754239,-0.00015271181473508477
1772557032875928600,5.057928466796875,-0.00030542362947016954,-0.0016798300202935934,-0.00015271181473508477
1772557032894701600,5.07670166015625,-0.00030542362947016954,-0.0004581354442052543,-0.001374406274408102
1772557032913474800,5.095474853515625,-0.00030542362947016954,0.00015271181473508477,-0.00015271181473508477
1772557032932248000,5.114248046875,-0.00030542362947016954,0.001374406274408102,0.0004581354442052543
1772557032951021300,5.133021240234375,-0.00030542362947016954,0.00015271181473508477,-0.00015271181473508477
1772557032969794300,5.151794189453125,0.00030542362947016954,0.0007635590736754239,-0.0007635590736754239
1772557032988567600,5.170567626953125,0.00030542362947016954,-0.0010689827613532543,-0.00015271181473508477
1772557033007340800,5.1893408203125,0.00030542362947016954,0.00015271181473508477,-0.00015271181473508477
1772557033026114000,5.208114013671875,0.00030542362947016954,-0.0004581354442052543,-0.001374406274408102
1772557033044887000,5.226886962890625,-0.0009162708884105086,0,-0.001374406274408102
1772557033063660300,5.245660400390625,0.0009162708884105086,-0.0004581354442052543,-0.00015271181473508477
1772557033082433500,5.26443359375,-0.0009162708884105086,-0.0004581354442052543,-0.0007635590736754239
1772557033101206800,5.283206787109375,0.00030542362947016954,0.001374406274408102,0.0004581354442052543
1772557033119980000,5.30197998046875,-0.00030542362947016954,0.0007635590736754239,-0.0007635590736754239
1772557033138753000,5.3207529296875,0.0004581354442052543,0.0007635590736754239,0
1772557033157526300,5.3395263671875,0.0010689827613532543,0.00015271181473508477,0.0006108472589403391
1772557033176299500,5.358299560546875,-0.00015271181473508477,0.0007635590736754239,0
1772557033195072800,5.37707275390625,-0.00015271181473508477,-0.0004581354442052543,0.0006108472589403391
1772557033213845800,5.395845703125,-0.00015271181473508477,0.00015271181473508477,-0.0012216945178806782
1772557033232619000,5.414618896484375,-0.00015271181473508477,0.00015271181473508477,0
1772557033251392300,5.433392333984375,-0.00015271181473508477,0.00015271181473508477,0.0006108472589403391
1772557033270165500,5.45216552734375,-0.00015271181473508477,0.00015271181473508477,0.0006108472589403391
1772557033288938500,5.4709384765625,-0.00015271181473508477,0.00015271181473508477,0.0006108472589403391
1772557033307711700,5.489711669921875,-0.00015271181473508477,0.00015271181473508477,-0.0006108472589403391
1772557033326485000,5.508485107421875,0.0004581354442052543,0.0007635590736754239,0
1772557033345258200,5.52725830078125,-0.00015271181473508477,-0.0004581354442052543,0
1772557033364031200,5.54603125,0.0010689827613532543,-0.0010689827613532543,-0.0006108472589403391
1772557033382804500,5.564804443359375,-0.00015271181473508477,-0.0004581354442052543,0
1772557033401577700,5.58357763671875,-0.00015271181473508477,-0.0004581354442052543,0
1772557033420351000,5.60235107421875,0.0004581354442052543,0.001374406274408102,0
1772557033439124000,5.6211240234375,-0.00015271181473508477,0.00015271181473508477,0
1772557033457897200,5.639897216796875,0.0004581354442052543,0.0012216945178806782,-0.0006108472589403391
1772557033476670500,5.65867041015625,0.0010689827613532543,-0.0004581354442052543,0.0006108472589403391
1772557033495443700,5.677443603515625,0.0004581354442052543,-0.0004581354442052543,0
1772557033514217000,5.696217041015625,0.0004581354442052543,0.0007635590736754239,-0.0006108472589403391
1772557033532990000,5.714989990234375,0.0004581354442052543,-0.0004581354442052543,-0.0012216945178806782
1772557033551763200,5.73376318359375,-0.00015271181473508477,0.0007635590736754239,-0.0012216945178806782
1772557033570536400,5.752536376953125,-0.00015271181473508477,0.00015271181473508477,-0.0006108472589403391
1772557033589309700,5.771309814453125,0.0004581354442052543,-0.0004581354442052543,0.0006108472589403391
1772557033608082700,5.790082763671875,0.0004581354442052543,0.00015271181473508477,0
1772557033626856000,5.80885595703125,0.0004581354442052543,0.00015271181473508477,0
1772557033645629200,5.827629150390625,0.0010689827613532543,0.00015271181473508477,0.0006108472589403391
1772557033664402400,5.84640234375,-0.00015271181473508477,0.0007635590736754239,0
1772557033683175400,5.865175537109375,-0.0007635590736754239,-0.0004581354442052543,0.0018325417768210173
1772557033701948700,5.88394873046875,0.0004581354442052543,-0.0010689827613532543,-0.0006108472589403391
1772557033720722000,5.902721923828125,0.0010689827613532543,0.00015271181473508477,0
1772557033739495200,5.9214951171875,-0.001374406274408102,-0.0004581354442052543,-0.0012216945178806782
1772557033758268400,5.940268310546875,-0.0007635590736754239,0.0007635590736754239,0.0006108472589403391
1772557033777041400,5.95904150390625,-0.00015271181473508477,0.00015271181473508477,-0.0006108472589403391
1772557033795814700,5.977814697265625,0.0004581354442052543,-0.0016798300202935934,-0.0006108472589403391
1772557033814588000,5.996587890625,-0.00015271181473508477,0.00015271181473508477,-0.0006108472589403391
1772557033833361000,6.01536083984375,0.0010689827613532543,-0.0004581354442052543,-0.0006108472589403391
1772557033852134100,6.034134033203125,0.0004581354442052543,0.0007635590736754239,0.0006108472589403391
1772557033870907400,6.052907470703125,-0.00015271181473508477,0.00015271181473508477,-0.0006108472589403391
1772557033889680600,6.0716806640625,0.0004581354442052543,-0.0016798300202935934,-0.0006108472589403391
1772557033908454000,6.090453857421875,-0.00015271181473508477,0.00015271181473508477,0.0006108472589403391
1772557033927227000,6.109226806640625,-0.00015271181473508477,0.00015271181473508477,-0.0006108472589403391
1772557033946000100,6.128000244140625,-0.00015271181473508477,-0.0004581354442052543,-0.0006108472589403391
1772557033964773400,6.1467734375,-0.00015271181473508477,-0.0004581354442052543,-0.0006108472589403391
1772557033983546600,6.165546630859375,-0.00015271181473508477,0.0007635590736754239,-0.0006108472589403391
1772557034002319600,6.184319580078125,-0.00015271181473508477,0.00015271181473508477,0.0006108472589403391
1772557034021092900,6.2030927734375,0.0010689827613532543,-0.0004581354442052543,0
1772557034039866000,6.2218662109375,-0.00015271181473508477,-0.0004581354442052543,0
1772557034058639400,6.240639404296875,-0.00015271181473508477,0.0007635590736754239,-0.0006108472589403391
1772557034077412400,6.259412353515625,0.0004581354442052543,0.00015271181473508477,0
1772557034096185600,6.278185546875,-0.00015271181473508477,0.001374406274408102,0
1772557034114958800,6.296958740234375,-0.00015271181473508477,0.00015271181473508477,-0.0012216945178806782
1772557034133732000,6.315732177734375,0.0010689827613532543,-0.0010689827613532543,0.0006108472589403391
1772557034152505300,6.33450537109375,0.0004581354442052543,0.00015271181473508477,0.0006108472589403391
1772557034171278300,6.3532783203125,-0.00015271181473508477,0.0007635590736754239,-0.0006108472589403391
1772557034190051600,6.372051513671875,-0.00015271181473508477,-0.0010689827613532543,0.0006108472589403391
1772557034208824800,6.390824951171875,-0.0007635590736754239,0.0007635590736754239,0
1772557034227598000,6.40959814453125,-0.001374406274408102,0.0007635590736754239,-0.0012216945178806782
1772557034246371000,6.42837109375,-0.00015271181473508477,-0.0004581354442052543,-0.0006108472589403391
1772557034265144300,6.447144287109375,-0.00015271181473508477,0.001374406274408102,0.0006108472589403391
1772557034283917600,6.46591748046875,-0.0007635590736754239,0.00015271181473508477,0
1772557034302690800,6.48469091796875,0.0010689827613532543,-0.0004581354442052543,0
1772557034321463800,6.5034638671875,-0.00015271181473508477,0.00015271181473508477,0
1772557034340237000,6.522237060546875,0.0010689827613532543,0.00015271181473508477,0.0012216945178806782
1772557034359010300,6.54101025390625,0.0004581354442052543,-0.0010689827613532543,0
1772557034377783600,6.559783447265625,-0.00015271181473508477,0.00015271181473508477,-0.0006108472589403391
1772557034396556800,6.578556884765625,0.0004581354442052543,0,-0.0018325417768210173
1772557034415329800,6.597329833984375,0.0004581354442052543,0.0007635590736754239,-0.0006108472589403391
1772557034434103000,6.61610302734375,-0.00015271181473508477,-0.0004581354442052543,-0.0012216945178806782
1772557034452876300,6.634876220703125,0.0004581354442052543,0.00015271181473508477,0
1772557034471649500,6.6536494140625,-0.00015271181473508477,0.00015271181473508477,0
1772557034490422500,6.672422607421875,-0.0007635590736754239,-0.0004581354442052543,0.0006108472589403391
1772557034509195800,6.69119580078125,0.0004581354442052543,-0.0004581354442052543,0.0006108472589403391
1772557034527969000,6.709968994140625,0.0004581354442052543,-0.0004581354442052543,0.0006108472589403391
1772557034546742300,6.7287421875,-0.00015271181473508477,0.00015271181473508477,0.0006108472589403391
1772557034565515500,6.747515625,0.0004581354442052543,0.0007635590736754239,0
1772557034584288500,6.76628857421875,0.0010689827613532543,-0.0004581354442052543,0
1772557034603061800,6.785061767578125,-0.00015271181473508477,0.00015271181473508477,0
1772557034621835000,6.8038349609375,-0.00015271181473508477,-0.0004581354442052543,-0.0012216945178806782
1772557034640608300,6.822608154296875,-0.00015271181473508477,-0.0004581354442052543,-0.0006108472589403391
1772557034659381500,6.841381591796875,-0.00015271181473508477,0,-0.0018325417768210173
1772557034678154500,6.860154541015625,0.0004581354442052543,0.00015271181473508477,-0.0006108472589403391
1772557034696927700,6.878927734375,0.0004581354442052543,0.00015271181473508477,0
1772557034715701000,6.897700927734375,-0.0007635590736754239,-0.0004581354442052543,-0.0006108472589403391
1772557034734474200,6.91647412109375,-0.0007635590736754239,0.00015271181473508477,0.0006108472589403391
1772557034753247200,6.935247314453125,-0.00015271181473508477,-0.0004581354442052543,-0.0006108472589403391
1772557034772020500,6.9540205078125,-0.00015271181473508477,-0.0004581354442052543,0.0012216945178806782
1772557034790793700,6.972793701171875,-0.00015271181473508477,0.00015271181473508477,-0.0012216945178806782
1772557034809567000,6.99156689453125,-0.00015271181473508477,0.00015271181473508477,-0.0006108472589403391
1772557034828340000,7.010340087890625,-0.00015271181473508477,-0.0004581354442052543,0.0006108472589403391
1772557034847113200,7.02911328125,-0.00015271181473508477,0.00015271181473508477,0
1772557034865886500,7.047886474609375,0.0004581354442052543,-0.0004581354442052543,-0.0006108472589403391
1772557034884659700,7.06665966796875,0.0004581354442052543,0.00015271181473508477,-0.0010689827613532543
1772557034903433000,7.085432861328125,0.0004581354442052543,-0.0004581354442052543,0.00015271181473508477
1772557034922206000,7.1042060546875,-0.00015271181473508477,0.00015271181473508477,0.00015271181473508477
1772557034940979200,7.122979248046875,-0.00015271181473508477,-0.0010689827613532543,0.0007635590736754239
1772557034959752400,7.14175244140625,-0.00015271181473508477,-0.0004581354442052543,0.00015271181473508477
1772557034978525700,7.160525634765625,-0.00015271181473508477,0.00015271181473508477,-0.0004581354442052543
1772557034997299000,7.179298828125,-0.0007635590736754239,-0.0004581354442052543,-0.0010689827613532543
1772557035016072000,7.198072021484375,0.0004581354442052543,-0.0010689827613532543,0.00015271181473508477
1772557035034845200,7.21684521484375,0.0004581354442052543,0.00015271181473508477,0.00015271181473508477
1772557035053618400,7.235618408203125,0.0004581354442052543,0.0007635590736754239,0.0007635590736754239
1772557035072391700,7.2543916015625,-0.00015271181473508477,-0.0010689827613532543,0.00015271181473508477
1772557035091164700,7.27316455078125,0.0004581354442052543,0.00015271181473508477,0.0007635590736754239
1772557035109938000,7.29193798828125,0.0004581354442052543,0.00015271181473508477,0.00015271181473508477
1772557035128711200,7.310711181640625,-0.00015271181473508477,0,-0.0004581354442052543
1772557035147484400,7.329484375,-0.00015271181473508477,-0.0006108472589403391,-0.0010689827613532543
1772557035166257400,7.34825732421875,0.0004581354442052543,-0.0010689827613532543,0.00015271181473508477
1772557035185030700,7.36703076171875,-0.00015271181473508477,0.00015271181473508477,0.0007635590736754239
1772557035203804000,7.385803955078125,-0.00015271181473508477,-0.0010689827613532543,0.00015271181473508477
1772557035222577200,7.4045771484375,-0.00015271181473508477,0.00015271181473508477,0.00015271181473508477
1772557035241350400,7.423350341796875,0.0004581354442052543,0.00015271181473508477,0.0007635590736754239
1772557035260123400,7.442123291015625,0.0004581354442052543,0.0007635590736754239,0.00015271181473508477
1772557035278896600,7.460896728515625,-0.00015271181473508477,0.00015271181473508477,0.0007635590736754239
1772557035297670000,7.479669921875,-0.00015271181473508477,0.00015271181473508477,0.00015271181473508477
1772557035316443100,7.498443115234375,0.0010689827613532543,0.0007635590736754239,0.0007635590736754239
1772557035335216400,7.51721630859375,0.0004581354442052543,0.00015271181473508477,0.00015271181473508477
1772557035353989400,7.5359892578125,-0.00015271181473508477,-0.0016798300202935934,0.00015271181473508477
1772557035372762600,7.5547626953125,0.0004581354442052543,0.00015271181473508477,0.0007635590736754239
1772557035391535900,7.573535888671875,0.0010689827613532543,-0.0004581354442052543,-0.0004581354442052543
1772557035410309000,7.59230908203125,-0.00015271181473508477,0.001374406274408102,0.00015271181473508477
1772557035429082400,7.611082275390625,-0.00015271181473508477,0.00015271181473508477,-0.0004581354442052543
1772557035447855400,7.62985546875,-0.00015271181473508477,0.0007635590736754239,0.001374406274408102
1772557035466628600,7.648628662109375,0.0004581354442052543,0.00015271181473508477,0.00015271181473508477
1772557035485401900,7.66740185546875,0.0010689827613532543,0.0007635590736754239,-0.0004581354442052543
1772557035504175000,7.686175048828125,-0.00015271181473508477,-0.0004581354442052543,-0.0004581354442052543
1772557035522948000,7.704947998046875,-0.00015271181473508477,-0.0004581354442052543,0.00015271181473508477
1772557035541721300,7.723721435546875,-0.00015271181473508477,0.0007635590736754239,0.00015271181473508477
1772557035560494600,7.74249462890625,0.0004581354442052543,0.0006108472589403391,-0.0010689827613532543
1772557035579267800,7.761267822265625,0.0004581354442052543,0.00015271181473508477,0.00015271181473508477
1772557035598041000,7.780041015625,0.0010689827613532543,0,-0.0004581354442052543
1772557035616814000,7.79881396484375,-0.00015271181473508477,-0.0004581354442052543,-0.0004581354442052543
1772557035635587300,7.81758740234375,-0.00015271181473508477,0.00015271181473508477,0.00015271181473508477
1772557035654360600,7.836360595703125,-0.00015271181473508477,0.00015271181473508477,0.00015271181473508477
1772557035673133800,7.8551337890625,-0.00015271181473508477,0.0006108472589403391,-0.0004581354442052543
1772557035691907000,7.873906982421875,0.0010689827613532543,0.0007635590736754239,0.00015271181473508477
1772557035710680000,7.89268017578125,-0.0007635590736754239,0.00015271181473508477,-0.0018325417768210173
1772557035729453300,7.911453369140625,-0.00015271181473508477,-0.0004581354442052543,-0.0004581354442052543
1772557035748226600,7.9302265625,0.0004581354442052543,-0.0004581354442052543,-0.0010689827613532543
1772557035766999800,7.948999755859375,-0.0007635590736754239,0.00015271181473508477,0.00015271181473508477
1772557035785773000,7.96777294921875,0.0004581354442052543,-0.0004581354442052543,0.00015271181473508477
1772557035804546000,7.986546142578125,-0.00015271181473508477,0.001374406274408102,0.0007635590736754239
1772557035823319300,8.0053193359375,0.0004581354442052543,-0.0004581354442052543,0.0007635590736754239
1772557035842092500,8.024092529296874,-0.00015271181473508477,0.0007635590736754239,-0.0004581354442052543
1772557035860865800,8.04286572265625,0.0004581354442052543,-0.0004581354442052543,-0.0004581354442052543
1772557035879639000,8.06163916015625,-0.00015271181473508477,-0.0016798300202935934,-0.0004581354442052543
1772557035898412000,8.080412109375,0.0004581354442052543,0.00015271181473508477,0.0007635590736754239
1772557035917185300,8.099185302734375,0.0010689827613532543,-0.0004581354442052543,0.0007635590736754239
1772557035935958500,8.11795849609375,-0.00015271181473508477,0.00015271181473508477,-0.0004581354442052543
1772557035954731800,8.136731689453125,-0.00015271181473508477,-0.0004581354442052543,0.0007635590736754239
1772557035973504800,8.1555048828125,-0.00015271181473508477,0.00015271181473508477,0.00015271181473508477
1772557035992278000,8.174278076171875,0.0004581354442052543,0.00015271181473508477,0.00015271181473508477
1772557036011051300,8.19305126953125,-0.00015271181473508477,0.0007635590736754239,-0.0004581354442052543
1772557036029824500,8.211824462890625,-0.00015271181473508477,0.00015271181473508477,-0.0004581354442052543
1772557036048597800,8.23059765625,0.0004581354442052543,0.0007635590736754239,0.00015271181473508477
1772557036067370800,8.249370849609376,-0.0007635590736754239,0.00015271181473508477,0.00015271181473508477
1772557036086144000,8.26814404296875,-0.00015271181473508477,0.0007635590736754239,-0.0004581354442052543
1772557036104917200,8.286917236328126,-0.00015271181473508477,-0.0004581354442052543,0.00015271181473508477
1772557036123690500,8.3056904296875,-0.0007635590736754239,0.0007635590736754239,0.00015271181473508477
1772557036142463700,8.324463623046874,-0.00015271181473508477,0.0006108472589403391,-0.0018325417768210173
1772557036161236700,8.34323681640625,-0.00015271181473508477,0.0006108472589403391,-0.0004581354442052543
1772557036180010000,8.362010009765624,-0.00015271181473508477,0.0007635590736754239,0.00015271181473508477
1772557036198783200,8.380783203125,-0.0007635590736754239,-0.0004581354442052543,0.00015271181473508477
1772557036217556500,8.399556396484375,-0.00015271181473508477,0.001374406274408102,0.00015271181473508477
1772557036236329700,8.418329833984375,-0.00015271181473508477,-0.0004581354442052543,-0.0010689827613532543
1772557036255102700,8.437102783203125,0.0004581354442052543,0.0006108472589403391,-0.0010689827613532543
1772557036273876000,8.4558759765625,-0.00015271181473508477,-0.0004581354442052543,0.001374406274408102
1772557036292649200,8.474649169921875,-0.00015271181473508477,-0.0004581354442052543,0.0007635590736754239
1772557036311422500,8.49342236328125,-0.0007635590736754239,-0.0010689827613532543,0.0007635590736754239
1772557036330195700,8.51219580078125,-0.00015271181473508477,-0.0004581354442052543,-0.0004581354442052543
1772557036348968700,8.53096875,0.0010689827613532543,0.0007635590736754239,0.0007635590736754239
1772557036367742000,8.549741943359376,-0.00015271181473508477,0.00015271181473508477,0.00015271181473508477
1772557036386515200,8.56851513671875,0.0004581354442052543,0.0007635590736754239,0.0007635590736754239
1772557036405288400,8.587288330078126,-0.00015271181473508477,-0.0004581354442052543,-0.0004581354442052543
1772557036424061700,8.606061767578124,-0.0007635590736754239,-0.0004581354442052543,0.00015271181473508477
1772557036442834700,8.624834716796874,-0.00015271181473508477,0.001374406274408102,-0.0006108472589403391
1772557036461608000,8.64360791015625,-0.00015271181473508477,0.0007635590736754239,-0.0004581354442052543
1772557036480381200,8.662381103515624,0.0004581354442052543,0.00015271181473508477,-0.0004581354442052543
1772557036499154400,8.681154541015625,-0.0007635590736754239,-0.0010689827613532543,0.00015271181473508477
1772557036517927400,8.699927490234375,-0.00015271181473508477,-0.0010689827613532543,0.00015271181473508477
1772557036536700700,8.71870068359375,-0.0007635590736754239,0.00015271181473508477,-0.0004581354442052543
1772557036555474000,8.737473876953125,-0.00015271181473508477,-0.0010689827613532543,-0.0004581354442052543
1772557036574247200,8.7562470703125,0.0010689827613532543,0.001374406274408102,0.0012216945178806782
1772557036593020200,8.775020263671875,0.0010689827613532543,0.00015271181473508477,0.00015271181473508477
1772557036611793400,8.79379345703125,-0.00015271181473508477,0.00015271181473508477,0.00015271181473508477
1772557036630566700,8.812566650390625,0.00030542362947016954,0.00015271181473508477,0.00015271181473508477
1772557036649340000,8.83133984375,-0.0009162708884105086,-0.0010689827613532543,-0.0004581354442052543
1772557036668113200,8.850113037109375,-0.00030542362947016954,0.00015271181473508477,0.00015271181473508477
1772557036686886100,8.86888623046875,0.00030542362947016954,-0.0016798300202935934,0.00015271181473508477
1772557036705659400,8.887659423828126,-0.0009162708884105086,-0.0004581354442052543,0.001374406274408102
1772557036724432600,8.9064326171875,0.0009162708884105086,0,-0.0004581354442052543
1772557036743206000,8.925205810546874,-0.00030542362947016954,-0.0010689827613532543,0.00015271181473508477
1772557036761979000,8.943978759765624,0.00030542362947016954,0,-0.0004581354442052543
1772557036780752100,8.962752197265624,-0.00030542362947016954,-0.0010689827613532543,0.00015271181473508477
1772557036799525400,8.981525390625,0.0009162708884105086,-0.0004581354442052543,0.00015271181473508477
1772557036818298600,9.000298583984375,0.00030542362947016954,0.00015271181473508477,0.0007635590736754239
1772557036837071600,9.019071533203125,-0.00030542362947016954,0.00015271181473508477,0.0007635590736754239
1772557036855844900,9.037844970703125,-0.00030542362947016954,0.0012216945178806782,-0.0006108472589403391
1772557036874618000,9.0566181640625,-0.00030542362947016954,-0.0004581354442052543,0.00015271181473508477
1772557036893391400,9.075391357421875,-0.00030542362947016954,0.0007635590736754239,0
1772557036912164400,9.094164306640625,0.0009162708884105086,-0.0010689827613532543,0.00015271181473508477
1772557036930937600,9.1129375,-0.00030542362947016954,0,-0.0004581354442052543
1772557036949710800,9.1317109375,0.00030542362947016954,-0.0004581354442052543,-0.0004581354442052543
1772557036968484000,9.150484130859375,-0.00030542362947016954,-0.0004581354442052543,0.00015271181473508477
1772557036987257000,9.169257080078125,0.0009162708884105086,0.0007635590736754239,0.0006108472589403391
1772557037006030300,9.1880302734375,0.0009162708884105086,0.00015271181473508477,0.0007635590736754239
1772557037024803600,9.206803466796876,0.0015271181473508477,0.0006108472589403391,-0.0006108472589403391
1772557037043576600,9.22557666015625,-0.00030542362947016954,-0.0010689827613532543,-0.0004581354442052543
1772557037062349800,9.244349853515626,0.00030542362947016954,-0.0004581354442052543,-0.0004581354442052543
1772557037081123000,9.263123046875,-0.0009162708884105086,0.0006108472589403391,-0.0012216945178806782
1772557037099896300,9.281896240234374,-0.00030542362947016954,-0.0010689827613532543,0.00015271181473508477
1772557037118669300,9.30066943359375,-0.00030542362947016954,-0.0004581354442052543,0.0007635590736754239
1772557037137442600,9.319442626953125,0.00030542362947016954,-0.0010689827613532543,-0.0004581354442052543
1772557037156215800,9.3382158203125,0.00030542362947016954,0.00015271181473508477,0.00015271181473508477
1772557037174988800,9.35698876953125,0.00030542362947016954,0.00015271181473508477,0.0007635590736754239
1772557037193762000,9.375761962890625,0.00030542362947016954,-0.0012216945178806782,-0.0010689827613532543
1772557037212535300,9.394535400390625,0.0009162708884105086,-0.0004581354442052543,-0.0004581354442052543
1772557037231308300,9.413308349609375,-0.0009162708884105086,0.00015271181473508477,0.001985253533348441
1772557037250081500,9.43208154296875,-0.0009162708884105086,0.00015271181473508477,0.001374406274408102
1772557037268854800,9.450854736328125,-0.0009162708884105086,0.0007635590736754239,0.00015271181473508477
1772557037287627800,9.469627685546875,0.00030542362947016954,0.0007635590736754239,0
1772557037306401000,9.488401123046875,0.00030542362947016954,0.00015271181473508477,0.0007635590736754239
1772557037325174300,9.50717431640625,-0.00030542362947016954,0,-0.0004581354442052543
1772557037343947300,9.525947265625,-0.00030542362947016954,-0.0004581354442052543,0.00015271181473508477
1772557037362720500,9.544720458984376,-0.00030542362947016954,0.00015271181473508477,0.0007635590736754239
1772557037381493800,9.56349365234375,0.0009162708884105086,0.00015271181473508477,0.00015271181473508477
1772557037400266800,9.582266845703124,0.0009162708884105086,0.0006108472589403391,-0.0006108472589403391
1772557037419040000,9.6010400390625,-0.00030542362947016954,0.00015271181473508477,0.00015271181473508477
1772557037437813200,9.619813232421874,0.00030542362947016954,0.0007635590736754239,0.00015271181473508477
1772557037456586200,9.638586181640624,0.00030542362947016954,0.00015271181473508477,0.0007635590736754239
1772557037475359500,9.657359375,-0.00030542362947016954,-0.0010689827613532543,0.00015271181473508477
1772557037494132700,9.6761328125,-0.00030542362947016954,0.00015271181473508477,0.0007635590736754239
1772557037512905700,9.69490576171875,0.0009162708884105086,0,-0.0010689827613532543
1772557037531679000,9.713678955078125,-0.0009162708884105086,0.00015271181473508477,0.00015271181473508477
1772557037550452200,9.7324521484375,-0.00030542362947016954,0,-0.0004581354442052543
1772557037569225200,9.75122509765625,-0.00030542362947016954,0.0007635590736754239,0.004428642801940441
1772557037587998500,9.76999853515625,0.00030542362947016954,0.001374406274408102,0.004428642801940441
1772557037606771500,9.788771484375,-0.00030542362947016954,0.0007635590736754239,0.0038177953101694584
1772557037625544700,9.807544677734375,0.0009162708884105086,-0.0006108472589403391,-0.0004581354442052543
1772557037644318000,9.82631787109375,0.00030542362947016954,-0.0006108472589403391,-0.0004581354442052543
1772557037663091000,9.845091064453126,-0.00030542362947016954,-0.0006108472589403391,-0.0022906772792339325
1772557037681864200,9.8638642578125,-0.0009162708884105086,-0.0006108472589403391,-0.006108472589403391
1772557037700637200,9.88263720703125,-0.00030542362947016954,-0.0018325417768210173,-0.0022906772792339325
1772557037719410400,9.901410400390626,-0.00030542362947016954,-0.0012216945178806782,-0.0004581354442052543
