time,seconds_elapsed,z,y,x
1772740723148428300,0.17342822265625,1.2847645282745361,-0.8643488883972168,0.23853585124015808
1772740723176587300,0.201587158203125,0.8035695552825928,-0.38223767280578613,0.016645587980747223
1772740723204746200,0.229746337890625,0.6487197875976562,-0.7603521347045898,-0.19562382996082306
1772740723223518700,0.248518798828125,0.8365553021430969,-0.7834116220474243,-0.14751961827278137
1772740723242291500,0.26729150390625,1.060430884361267,-0.36284327507019043,0.06016845628619194
1772740723261064000,0.28606396484375,1.372573733329773,0.3912476599216461,0.41919392347335815
1772740723279836700,0.304836669921875,1.6787610054016113,0.9991934299468994,0.6928535103797913
1772740723298609200,0.323609130859375,2.2062275409698486,1.5309358835220337,0.8472451567649841
1772740723317381600,0.342381591796875,3.089665412902832,1.8818676471710205,0.9642223715782166
1772740723336154400,0.361154296875,3.453577756881714,1.5518574714660645,1.032942771911621
1772740723354926800,0.3799267578125,2.675358295440674,0.8738170266151428,1.1288456916809082
1772740723373699600,0.398699462890625,2.3757376670837402,0.08903098851442337,1.2781978845596313
1772740723392472000,0.41747216796875,2.6605453491210938,-1.02683424949646,0.9885035753250122
1772740723411244800,0.436244873046875,2.3884127140045166,-2.545247793197632,-0.9478822350502014
1772740723430004200,0.455004150390625,1.8068861961364746,-1.6353908777236938,-2.8909873962402344
1772740723448790000,0.4737900390625,1.1002886295318604,1.4080029726028442,-3.3686699867248535
1772740723467562500,0.4925625,1.1314418315887451,2.9462690353393555,-2.7937099933624268
1772740723486322000,0.511322021484375,1.181836724281311,2.691087484359741,-2.0788660049438477
1772740723505107700,0.530107666015625,1.0721896886825562,1.5164283514022827,-1.5730843544006348
1772740723523880200,0.548880126953125,0.7858549952507019,0.8278507590293884,-1.3258439302444458
1772740723542639900,0.567639892578125,0.8115105628967285,0.7788302302360535,-1.2375766038894653
1772740723561425400,0.58642529296875,1.0770764350891113,0.9240592122077942,-0.9814788103103638
1772740723580198100,0.6051982421875,1.215127944946289,0.9390249252319336,-0.3834593594074249
1772740723598957600,0.62395751953125,1.094791054725647,0.7293516397476196,0.32130566239356995
1772740723617743400,0.642743408203125,1.034011721611023,0.5158604979515076,0.7430956959724426
1772740723636515800,0.661515869140625,1.0841012001037598,0.5726693272590637,0.9197832345962524
1772740723655275300,0.680275146484375,1.1651911735534668,0.640626072883606,1.0610417127609253
1772740723674061000,0.69906103515625,1.2067288160324097,0.7342383861541748,1.2048962116241455
1772740723692833500,0.71783349609375,1.1519051790237427,0.8008207678794861,1.333632230758667
1772740723711606300,0.736606201171875,1.068982720375061,0.7189671993255615,1.5011571645736694
1772740723730378800,0.755378662109375,0.9239065051078796,0.6187883019447327,1.5976710319519043
1772740723749151500,0.7741513671875,0.8377770185470581,0.49325916171073914,1.5020734071731567
1772740723767911000,0.792910888671875,0.8096780180931091,0.4543176591396332,1.3542484045028687
1772740723786696700,0.81169677734375,0.7104153633117676,0.2802261710166931,1.5393351316452026
1772740723805469200,0.83046923828125,0.689341127872467,-0.1817270666360855,1.8308619260787964
1772740723824228600,0.849228515625,0.5975613594055176,-0.9164236187934875,1.5872865915298462
1772740723843014400,0.868014404296875,-0.08261708915233612,-1.946770191192627,0.5285356044769287
1772740723861787000,0.886786865234375,-1.0931111574172974,-2.314958333969116,-1.4302988052368164
1772740723880546600,0.905546630859375,-1.998692274093628,-1.1060916185379028,-2.9096181392669678
1772740723899332000,0.92433203125,-2.4595766067504883,0.3370349705219269,-2.9664270877838135
1772740723918104800,0.943104736328125,-1.8694980144500732,1.1041064262390137,-2.210198163986206
1772740723936864300,0.9618642578125,-0.735460102558136,0.7973083853721619,-1.5065020322799683
1772740723955649800,0.98064990234375,0.2092151790857315,0.10185877978801727,-0.8825215697288513
1772740723974422500,0.999422607421875,0.6991146802902222,-0.37444937229156494,-0.29839888215065
1772740723993182000,1.018181884765625,0.7676823139190674,-0.5311316847801208,-0.008093725889921188
1772740724011967700,1.0369677734375,0.7656970620155334,-0.3567348122596741,-0.060932014137506485
1772740724030740200,1.055740234375,0.8264763355255127,-0.09712471067905426,-0.22158484160900116
1772740724049499600,1.074499755859375,0.9356653094291687,0.051463883370161057,-0.2504473626613617
1772740724068285400,1.093285400390625,1.0388984680175781,-0.00519220158457756,-0.10063708573579788
1772740724087058000,1.112057861328125,1.1085350513458252,-0.13362284004688263,0.12079504877328873
1772740724105817600,1.130817626953125,1.1300674676895142,-0.2489202618598938,0.29687178134918213
1772740724124603100,1.14960302734375,1.1606098413467407,-0.1169772520661354,0.4821111857891083
1772740724143376000,1.1683759765625,1.3301198482513428,0.2095206081867218,0.8148702383041382
1772740724162148400,1.1871484375,1.54193115234375,0.4271349310874939,1.2969814538955688
1772740724180920800,1.2059208984375,1.6709727048873901,0.37887802720069885,1.7795507907867432
1772740724199693600,1.224693603515625,1.5327684879302979,-0.26128992438316345,1.8581973314285278
1772740724218453000,1.243452880859375,1.336533784866333,-0.8396095633506775,1.4167075157165527
1772740724237238800,1.26223876953125,1.0033166408538818,-1.488329291343689,0.7172874212265015
1772740724256011300,1.28101123046875,0.8776348233222961,-1.7393875122070312,0.4618005156517029
1772740724274770700,1.299770751953125,1.0885298252105713,-2.276627779006958,0.5799994468688965
1772740724293556500,1.318556396484375,0.8360971808433533,-3.4496071338653564,-0.7099572420120239
1772740724312329000,1.337328857421875,-0.12079504877328873,-3.1841940879821777,-2.021599054336548
1772740724331088600,1.356088623046875,-1.7917677164077759,-0.9242119193077087,-2.7637784481048584
1772740724349874200,1.374874267578125,-2.548760175704956,2.470877170562744,-3.3462212085723877
1772740724368647000,1.39364697265625,-2.3358798027038574,4.7227654457092285,-3.621713399887085
1772740724387406300,1.41240625,-1.579803705215454,4.834092617034912,-3.4230353832244873
1772740724406192000,1.431192138671875,-0.7824953198432922,3.413414478302002,-2.751561403274536
1772740724424964600,1.449964599609375,-0.17714570462703705,1.7178552150726318,-1.7790926694869995
1772740724443724000,1.46872412109375,0.11575555801391602,0.46867257356643677,-0.6620057225227356
1772740724462509800,1.487509765625,0.2652604281902313,-0.15316994488239288,0.37735089659690857
1772740724481282300,1.5062822265625,0.5691569447517395,-0.4428642690181732,1.2484190464019775
1772740724500041700,1.525041748046875,0.9177979826927185,-0.5558710098266602,1.6889926195144653
1772740724518827500,1.54382763671875,1.061805248260498,-0.543806791305542,1.7561858892440796
1772740724537600000,1.56260009765625,0.9116895198822021,-0.6045860648155212,1.650203824043274
1772740724556359700,1.581359619140625,0.705986738204956,-0.5531222224235535,1.479472041130066
1772740724575145200,1.600145263671875,0.5917583107948303,-0.44332239031791687,1.299272060394287
1772740724593918000,1.61891796875,0.6001574397087097,-0.4133908748626709,1.1920684576034546
1772740724612690400,1.6376904296875,0.7125533223152161,-0.51998370885849,1.150072693824768
1772740724631463000,1.656462890625,0.8498412370681763,-0.6135960817337036,1.1934428215026855
1772740724650235600,1.675235595703125,0.8780929446220398,-0.6453601121902466,1.30476975440979
1772740724668995000,1.6939951171875,0.7780666947364807,-0.6571189165115356,1.366923451423645
1772740724687780900,1.71278076171875,0.6041279435157776,-0.8528954982757568,1.1377030611038208
1772740724706553300,1.73155322265625,0.6114581227302551,-1.3113363981246948,0.6277982592582703
1772740724725312800,1.750312744140625,0.9904888272285461,-1.6976972818374634,0.3674246370792389
1772740724744098600,1.7690986328125,1.0378295183181763,-3.0325512886047363,-0.5789304971694946
1772740724762871000,1.78787109375,0.4558447599411011,-4.706730842590332,-3.931718349456787
1772740724781630700,1.806630615234375,-1.0891406536102295,-2.854489326477051,-6.239041328430176
1772740724800416300,1.825416259765625,-2.7938625812530518,2.065427303314209,-5.046056270599365
1772740724819188700,1.844188720703125,-2.4578967094421387,4.099853992462158,-2.9991073608398438
1772740724837948400,1.862948486328125,-1.0677610635757446,2.841356039047241,-1.5057384967803955
1772740724856734000,1.88173388671875,-0.11025793105363846,0.9940012097358704,-0.49448084831237793
1772740724875506700,1.900506591796875,-0.025197450071573257,-0.15591876208782196,0.08139539510011673
1772740724894266000,1.91926611328125,-0.3739912211894989,-0.40468630194664,0.31504446268081665
1772740724913051600,1.9380517578125,-0.6597150564193726,-0.08674030750989914,0.21623992919921875
1772740724931824400,1.956824462890625,-0.6752916574478149,0.149199441075325,-0.09712471067905426
1772740724950583800,1.975583740234375,-0.4850127100944519,0.09575030952692032,-0.24464432895183563
1772740724969369600,1.99436962890625,-0.24067382514476776,-0.06520794332027435,-0.1426328420639038
1772740724988142000,2.01314208984375,0.045355409383773804,0.04169032722711563,-0.002748812548816204
1772740725006914600,2.03191455078125,0.34253260493278503,0.34100547432899475,0.19241689145565033
1772740725025687300,2.050687255859375,0.6300889253616333,0.4802786707878113,0.5763344168663025
1772740725044459800,2.069459716796875,0.8353336453437805,0.26755109429359436,1.0911259651184082
1772740725063219200,2.08821923828125,0.975523054599762,-0.1388150453567505,1.5512466430664062
1772740725082005000,2.1070048828125,1.0495883226394653,-0.5044071078300476,1.832236409187317
1772740725100777500,2.125777587890625,1.0911259651184082,-0.6520794630050659,1.8349851369857788
1772740725119537200,2.144537109375,1.11678147315979,-0.6653653979301453,1.5770548582077026
1772740725138322700,2.16332275390625,1.0074398517608643,-0.7882983684539795,1.1885560750961304
1772740725157095200,2.18209521484375,0.804791271686554,-1.0619579553604126,0.7421793937683105
1772740725175854800,2.200854736328125,1.0265288352966309,-2.031219959259033,0.06520794332027435
1772740725194640400,2.219640380859375,1.4154858589172363,-4.173003196716309,-0.5925218462944031
1772740725213413000,2.2384130859375,1.3226370811462402,-5.803049087524414,-1.8071916103363037
1772740725232172500,2.257172607421875,0.3498627543449402,-2.6484808921813965,-2.446748733520508
1772740725250958000,2.2759580078125,-0.9075663089752197,2.039008140563965,-1.5275763273239136
1772740725269730800,2.294730712890625,-0.9909469485282898,3.427616596221924,-0.8342646360397339
1772740725288490200,2.313490234375,-0.47676628828048706,2.740108013153076,-0.587940514087677
1772740725307276000,2.332276123046875,-0.10155335813760757,1.9626522064208984,-0.4280512034893036
1772740725326048500,2.351048583984375,-0.01725643500685692,1.9993031024932861,-0.22066856920719147
1772740725344808000,2.369807861328125,-0.18035265803337097,2.2780020236968994,-0.06673506647348404
1772740725363593700,2.38859375,-0.6178719997406006,2.323052167892456,0.08093725889921188
1772740725382366200,2.4073662109375,-1.0222529172897339,2.155679941177368,0.2586938142776489
1772740725401125600,2.426125732421875,-0.959793746471405,1.9171441793441772,0.37444937229156494
1772740725419911400,2.444911376953125,-0.45615020394325256,1.4730582237243652,0.4297310411930084
1772740725438684000,2.463683837890625,0.05741964280605316,0.8968765139579773,0.5488462448120117
1772740725457443600,2.482443603515625,0.2730487287044525,0.4474456310272217,0.7979192137718201
1772740725476229000,2.50122900390625,0.25319617986679077,0.2432699203491211,1.0808942317962646
1772740725495001600,2.520001708984375,0.2582356929779053,0.19302773475646973,1.2106993198394775
1772740725513774300,2.5387744140625,0.26785650849342346,0.2626643180847168,1.1951227188110352
1772740725532546800,2.557546875,0.29656633734703064,0.2583884000778198,1.0795198678970337
1772740725551319300,2.5763193359375,0.305118203163147,0.1438545286655426,0.9935430884361267
1772740725570079000,2.595078857421875,0.2110477238893509,0.04688252881169319,0.7105680704116821
1772740725588864500,2.613864501953125,0.09025268256664276,-0.020310672000050545,0.5352548956871033
1772740725607637200,2.63263720703125,0.18432316184043884,-0.43171629309654236,0.38071054220199585
1772740725626396700,2.651396728515625,0.6401679515838623,-1.8682763576507568,-0.14034216105937958
1772740725645182200,2.67018212890625,1.3799039125442505,-4.057400226593018,-1.3186665773391724
1772740725663955000,2.688954833984375,1.8722468614578247,-5.583449363708496,-1.7294613122940063
1772740725682714400,2.70771435546875,1.048366665840149,-4.747199535369873,-1.070662498474121
1772740725701500000,2.7265,-0.12705622613430023,-2.100245475769043,-0.6223006248474121
1772740725720272600,2.745272705078125,-0.46363306045532227,-0.1041494607925415,-0.5288410186767578
1772740725739032000,2.764031982421875,-0.20157960057258606,0.538919985294342,-0.4181249439716339
1772740725757817900,2.78281787109375,0.23563432693481445,0.16401249170303345,-0.10949437320232391
1772740725776590300,2.80159033203125,0.5610632300376892,-0.5737382769584656,0.5250232219696045
1772740725795349800,2.820349853515625,0.8762603998184204,-1.8015413284301758,1.4926053285598755
1772740725814135600,2.839135498046875,1.1838220357894897,-3.179307222366333,2.401546001434326
1772740725832908000,2.857907958984375,1.439461588859558,-4.156510353088379,3.0078117847442627
1772740725851667500,2.87666748046875,1.625922679901123,-4.585935592651367,3.2158052921295166
1772740725870453200,2.895453369140625,1.693574070930481,-4.463308334350586,3.087222099304199
1772740725889225700,2.914225830078125,1.6662386655807495,-3.939964771270752,2.740108013153076
1772740725907985400,2.9329853515625,1.3209571838378906,-3.3115556240081787,2.348860502243042
1772740725926771000,2.95177099609375,1.113574504852295,-2.5064589977264404,1.7755802869796753
1772740725945543400,2.97054345703125,1.414722204208374,-1.7447324991226196,0.7418739795684814
1772740725964303000,2.98930322265625,1.786422848701477,-1.3472236394882202,-0.23258009552955627
1772740725983088600,3.008088623046875,2.1297190189361572,-1.400214672088623,-0.844649076461792
1772740726001861000,3.026861083984375,2.291440725326538,-1.5827052593231201,-1.0265288352966309
1772740726020620800,3.045620849609375,2.2463908195495605,-1.6103460788726807,-0.8525900840759277
1772740726039406300,3.06440625,2.0530576705932617,-1.4396142959594727,-0.49524441361427307
1772740726058179000,3.083178955078125,1.6996824741363525,-1.1456440687179565,-0.06612421572208405
1772740726076938500,3.1019384765625,1.492452621459961,-1.110520362854004,0.4100312292575836
1772740726095724000,3.12072412109375,1.7708462476730347,-1.3096565008163452,0.6794148683547974
1772740726114496800,3.139496826171875,3.2984225749969482,-1.6934213638305664,0.6328377723693848
1772740726133256200,3.158256103515625,5.705771446228027,-2.4050583839416504,0.06856760382652283
1772740726152041700,3.177041748046875,7.726759910583496,-2.296327590942383,-1.5914098024368286
1772740726170814500,3.195814453125,8.33226203918457,0.8002098798751831,-4.55844783782959
1772740726189574000,3.214573974609375,6.131073951721191,4.818210601806641,-7.703853130340576
1772740726208359700,3.233359619140625,2.5354743003845215,7.287102222442627,-9.343672752380371
1772740726227132200,3.252132080078125,-0.5250232219696045,7.882372856140137,-9.183019638061523
1772740726245891600,3.2708916015625,-1.569113850593567,6.267903804779053,-6.991910457611084
1772740726264677400,3.289677490234375,-0.31412819027900696,2.52295184135437,-3.413109064102173
1772740726283449900,3.308449951171875,0.8922951221466064,-1.4968812465667725,0.7464553713798523
1772740726302209300,3.327209228515625,0.8834378719329834,-3.916752576828003,4.257758140563965
1772740726320995000,3.3459951171875,0.13316470384597778,-4.125967979431152,6.355712890625
1772740726339767600,3.364767578125,-0.5454866290092468,-2.7259058952331543,6.618377208709717
1772740726358527000,3.38352685546875,-0.9668185114860535,-0.788451075553894,5.429821491241455
1772740726377312800,3.402312744140625,-0.9455915689468384,0.661853015422821,3.737468957901001
1772740726396085200,3.421085205078125,-0.49707695841789246,0.6508577466011047,2.181182861328125
1772740726414845000,3.439844970703125,0.010689826682209969,-0.30313295125961304,1.1144908666610718
1772740726433630500,3.45863037109375,0.22219568490982056,-1.3603568077087402,0.7493568658828735
1772740726452403000,3.47740283203125,0.2916795611381531,-2.1335368156433105,1.0726478099822998
1772740726471162600,3.49616259765625,0.17088451981544495,-2.615495204925537,2.027554750442505
1772740726489948200,3.5149482421875,-0.08872556686401367,-2.5244789123535156,2.9955949783325195
1772740726508720600,3.533720703125,-0.23288552463054657,-1.9866280555725098,3.263146162033081
1772740726527480300,3.552480224609375,-0.13469181954860687,-1.3111836910247803,2.695974349975586
1772740726546265900,3.571265869140625,0.35474956035614014,-0.9756757616996765,1.6017942428588867
1772740726565038300,3.590038330078125,1.2571237087249756,-1.63019859790802,0.4052971601486206
1772740726583798000,3.608798095703125,2.4423201084136963,-2.5818986892700195,-0.3026748299598694
1772740726602583600,3.62758349609375,3.1896917819976807,-2.664057493209839,-0.754396378993988
1772740726621356300,3.646356201171875,2.143004894256592,-1.2543748617172241,-0.8504521250724792
1772740726640115700,3.66511572265625,0.08704573661088943,0.42576053738594055,-0.7180509567260742
1772740726658901500,3.683901611328125,-1.2052016258239746,1.1723686456680298,-0.6565080881118774
1772740726677674000,3.702674072265625,-1.5265072584152222,1.278961420059204,-0.00519220158457756
1772740726696433400,3.721433349609375,-1.5002409219741821,1.1022738218307495,1.3873867988586426
1772740726715219200,3.74021923828125,-1.4988664388656616,0.6696413159370422,2.802872657775879
1772740726733991700,3.75899169921875,-1.355470061302185,0.17958909273147583,3.476942539215088
1772740726752751000,3.777751220703125,-1.0259180068969727,-0.12048961967229843,3.2434463500976562
1772740726771537000,3.796536865234375,-0.5489989519119263,-0.3217637836933136,2.464616060256958
1772740726790309400,3.815309326171875,-0.23059484362602234,-0.5351021885871887,1.8698034286499023
1772740726809068800,3.83406884765625,-0.14996300637722015,-0.7304205894470215,1.6324893236160278
1772740726827854600,3.8528544921875,-0.07238540053367615,-0.8727480173110962,1.5260491371154785
1772740726846627000,3.871626953125,0.0068720318377017975,-1.018282413482666,1.443432092666626
1772740726865399600,3.890399658203125,0.016798298805952072,-1.1845855712890625,1.3962441682815552
1772740726884172300,3.90917236328125,-0.08933641016483307,-1.25254225730896,1.3653963804244995
1772740726902944800,3.92794482421875,-0.2480039894580841,-1.2536113262176514,1.3702831268310547
1772740726921704200,3.9467041015625,-0.4434750974178314,-1.105022668838501,1.231162667274475
1772740726940490000,3.965489990234375,-0.5621321797370911,-0.7421793937683105,0.9274188280105591
1772740726959262500,3.984262451171875,-0.6361974477767944,-0.3536805510520935,0.6905628442764282
1772740726978022000,4.00302197265625,-0.6864396333694458,-0.1188097894191742,0.6087092757225037
1772740726996807700,4.0218076171875,-0.5700731873512268,-0.00015271181473508477,0.5694623589515686
1772740727015580200,4.040580078125,-0.2686200737953186,0.03573456406593323,0.49524441361427307
1772740727034339600,4.059339599609375,0.05467082932591438,0.06016845628619194,0.32130566239356995
1772740727053125400,4.07812548828125,-0.02504473738372326,0.4950917065143585,-0.0016798300202935934
1772740727071897900,4.09689794921875,-0.71453857421875,1.508487343788147,-0.44958359003067017
1772740727090657500,4.115657470703125,-1.5611728429794312,2.860597610473633,-0.9074136018753052
1772740727109443000,4.134443115234375,-1.6870074272155762,3.8345937728881836,-1.080130696296692
1772740727128215600,4.153215576171875,-1.232231616973877,4.012503147125244,-0.707361102104187
1772740727146975200,4.171975341796875,-0.6546755433082581,3.8052730560302734,-0.04337015375494957
1772740727165760800,4.1907607421875,-0.22051586210727692,3.584604501724243,0.5557183027267456
1772740727184533200,4.209533203125,0.04932591691613197,3.616215705871582,0.8641961812973022
1772740727203293000,4.22829296875,0.12720894813537598,4.055567741394043,0.8690829277038574
1772740727222078500,4.247078369140625,0.03436015918850899,4.51904821395874,0.9732323884963989
1772740727240851000,4.265850830078125,-0.11209046840667725,4.691765308380127,1.3366864919662476
1772740727259610600,4.284610595703125,-0.08063183724880219,4.199727535247803,1.7748167514801025
1772740727278396200,4.303396240234375,0.11651911586523056,3.1915242671966553,1.9351640939712524
1772740727297169000,4.3221689453125,0.31168481707572937,2.2198188304901123,1.7077761888504028
1772740727315941400,4.34094140625,0.4133908748626709,1.963110327720642,1.1416735649108887
1772740727334713900,4.3597138671875,0.3752129375934601,2.3123621940612793,0.6108472347259521
1772740727353486600,4.378486572265625,0.32008397579193115,2.5733468532562256,0.40789327025413513
1772740727372259000,4.397259033203125,0.26755109429359436,2.5638787746429443,0.4978405237197876
1772740727391031600,4.416031494140625,0.28007346391677856,2.316943645477295,0.8527427911758423
1772740727409804300,4.43480419921875,0.46363306045532227,1.7291558980941772,1.2766708135604858
1772740727428576800,4.45357666015625,0.7666133046150208,1.1343433856964111,1.448013424873352
1772740727447349200,4.472349365234375,1.0769237279891968,0.5318952798843384,1.3371446132659912
1772740727466121700,4.491121826171875,1.3310362100601196,-0.26342788338661194,0.8773293495178223
1772740727484881400,4.50988134765625,1.1803096532821655,-0.9261971712112427,-0.0528382882475853
1772740727503667000,4.5286669921875,0.7550072073936462,-0.6711684465408325,-1.3139324188232422
1772740727522439700,4.547439697265625,0.39918869733810425,0.21425467729568481,-1.9217255115509033
1772740727541199000,4.56619921875,0.0794101431965828,0.8232693672180176,-1.093263864517212
1772740727559984600,4.584984619140625,0.22570806741714478,0.8156337738037109,0.07605048269033432
1772740727578757400,4.60375732421875,0.5045598149299622,1.0085088014602661,0.49356457591056824
1772740727597516800,4.622516845703125,0.5935907959938049,1.2542221546173096,0.4928010404109955
1772740727616302300,4.64130224609375,0.6302416324615479,1.2588034868240356,0.4709632396697998
1772740727635075000,4.660074951171875,0.6455128192901611,1.1260969638824463,0.5885513424873352
1772740727653834500,4.67883447265625,0.6621584296226501,0.9025267958641052,0.728893518447876
1772740727672620000,4.6976201171875,0.6817055344581604,0.8834378719329834,0.7887565493583679
1772740727691392500,4.716392578125,0.5798467397689819,0.9058864712715149,0.8638907074928284
1772740727710152200,4.735152099609375,0.4414898455142975,0.6421532034873962,0.8779402375221252
1772740727728937700,4.753937744140625,0.5207473039627075,0.5303681492805481,0.5494571328163147
1772740727747710200,4.772710205078125,0.652384877204895,0.47539186477661133,0.14797775447368622
1772740727766470000,4.791469970703125,0.5737382769584656,0.4159869849681854,-0.02993151545524597
1772740727785255400,4.81025537109375,0.4169032573699951,0.2904578745365143,-0.040010496973991394
1772740727804028200,4.829028076171875,0.2602209448814392,0.10934165865182877,0.00916270911693573
1772740727822800600,4.847800537109375,0.06245913356542587,0.0850604772567749,0.010231691412627697
1772740727841573000,4.866572998046875,-0.1328592747449875,0.1372879147529602,0.005955760832875967
1772740727860345900,4.885345947265625,-0.27564483880996704,0.1776038408279419,-0.025655584409832954
1772740727879118300,4.904118408203125,-0.20249587297439575,0.29794076085090637,-0.11575555801391602
1772740727897890800,4.922890869140625,0.04230117425322533,0.15591876208782196,-0.16706672310829163
1772740727916663600,4.94166357421875,0.30969956517219543,-0.22692975401878357,-0.1369825005531311
1772740727935423000,4.960423095703125,0.2808370292186737,-0.953227162361145,0.07757759839296341
1772740727954208500,4.97920849609375,0.025197450071573257,-1.8753011226654053,0.24556060135364532
1772740727972981000,4.99798095703125,0.14858859777450562,-1.8523943424224854,0.5392253994941711
1772740727991740700,5.01674072265625,0.24494975805282593,-2.0258748531341553,0.3071034550666809
1772740728010526200,5.035526123046875,-0.40972578525543213,-1.656006932258606,-0.892447829246521
1772740728029299000,5.054298828125,-1.5346009731292725,0.739736020565033,-1.087613582611084
1772740728048058400,5.073058349609375,-1.6697509288787842,2.867316961288452,-0.4865398406982422
1772740728066844000,5.091843994140625,-0.9364288449287415,2.8454792499542236,0.33260634541511536
1772740728085616600,5.11061669921875,-0.3429907262325287,1.5106252431869507,1.0692881345748901
1772740728104376000,5.1293759765625,0.17745113372802734,0.5435013771057129,1.2073396444320679
1772740728123161600,5.14816162109375,0.4152234196662903,0.5731274485588074,0.7398887276649475
1772740728141934000,5.16693408203125,0.5053234100341797,0.7327113151550293,0.3765873312950134
1772740728160693800,5.18569384765625,0.5505260825157166,0.8222004175186157,0.4196520745754242
1772740728179479300,5.204479248046875,0.8423583507537842,0.6435275673866272,0.5485408306121826
1772740728198251800,5.223251708984375,1.080436110496521,0.277630090713501,0.5783196687698364
1772740728217011500,5.242011474609375,1.032942771911621,0.19531841576099396,0.754396378993988
1772740728235797000,5.260796875,0.9013051390647888,0.2044811248779297,1.0230164527893066
1772740728254569500,5.279569580078125,0.5529694557189941,0.10384403169155121,0.9312366247177124
1772740728273342200,5.29834228515625,0.2408265322446823,0.1453816443681717,0.5143333673477173
1772740728292114700,5.31711474609375,0.08078455179929733,0.31596073508262634,0.07085828483104706
1772740728310887200,5.33588720703125,0.09590301662683487,0.26128992438316345,-0.1188097894191742
1772740728329660000,5.354659912109375,0.16340164840221405,-0.22311195731163025,0.07085828483104706
1772740728348432400,5.373432373046875,0.14904673397541046,-0.6563553810119629,0.21623992919921875
1772740728367204900,5.392204833984375,0.12461283802986145,-0.6302416324615479,0.2530434727668762
1772740728385964300,5.41096435546875,0.024433890357613564,-0.636350154876709,-0.01695101149380207
1772740728404750000,5.42975,-0.0925433561205864,-1.3211098909378052,-0.37948885560035706
1772740728423522600,5.4485224609375,-0.29687178134918213,-1.9203510284423828,-0.9023740887641907
1772740728442282000,5.467281982421875,-0.6019899845123291,-1.8088713884353638,-1.2444485425949097
1772740728461067800,5.48606787109375,-0.8785510659217834,-1.073258638381958,-1.6332528591156006
1772740728479840300,5.50484033203125,-0.7667660117149353,-0.0978882759809494,-1.900651216506958
1772740728498599700,5.523599609375,-0.37047886848449707,0.9958337545394897,-1.0334008932113647
1772740728517385500,5.542385498046875,0.10705098509788513,1.1827529668807983,0.08154810965061188
1772740728536158000,5.561157958984375,0.38193225860595703,0.9772028923034668,0.36162158846855164
1772740728554917400,5.57991748046875,0.4534013867378235,0.8906152844429016,0.2858765125274658
1772740728573703200,5.598703125,0.31473904848098755,0.788451075553894,0.12720894813537598
1772740728592475600,5.6174755859375,0.22509720921516418,0.6930062174797058,0.10185877978801727
1772740728611235000,5.636235107421875,0.1829487532377243,0.9475768208503723,0.10750912129878998
1772740728630020900,5.655020751953125,0.21944688260555267,1.161526083946228,0.05360184609889984
1772740728648793300,5.67379345703125,0.39949411153793335,1.0002623796463013,0.2020377367734909
1772740728667552800,5.692552734375,0.48272204399108887,0.7069029808044434,0.4333961308002472
1772740728686338300,5.71133837890625,0.34192174673080444,0.5682406425476074,0.47676628828048706
1772740728705111000,5.730111083984375,0.21562908589839935,0.5193728804588318,0.305576354265213
1772740728723870500,5.748870361328125,0.2942756712436676,0.4274403750896454,0.08002099394798279
1772740728742656000,5.767656005859375,0.4115583300590515,0.1375933438539505,0.2160872220993042
1772740728761428700,5.7864287109375,0.3849864900112152,-0.05619794875383377,0.4665345847606659
1772740728780201200,5.805201171875,0.24097923934459686,-0.1969982385635376,0.4524851143360138
1772740728798973700,5.8239736328125,0.1175880953669548,-0.1119377613067627,0.1716480851173401
1772740728817746400,5.842746337890625,0.06016845628619194,-0.1322484314441681,0.0022906772792339325
1772740728836505900,5.861505859375,0.10170606523752213,-0.2748812735080719,-0.05390727147459984
1772740728855291400,5.88029150390625,0.11774080991744995,-0.4821111857891083,-0.0778830274939537
1772740728874064000,5.89906396484375,0.06261184066534042,-1.2117682695388794,0.15408621728420258
1772740728892823600,5.917823486328125,-0.051616594195365906,-2.2140159606933594,0.06719319522380829
1772740728911609000,5.936609130859375,-0.12339114397764206,-2.1107826232910156,-0.8648070096969604
1772740728930381600,5.955381591796875,-0.2611372172832489,-0.6482616662979126,-1.4935215711593628
1772740728949141000,5.97414111328125,-0.0984991192817688,0.5254813432693481,-0.7249229550361633
1772740728967926800,5.9929267578125,0.20188501477241516,0.9213103652000427,0.3242071866989136
1772740728986699300,6.01169921875,0.518609344959259,1.2103937864303589,0.7542436718940735
1772740729005458700,6.030458740234375,0.7980719208717346,1.3438639640808105,0.7339329719543457
1772740729024244500,6.049244384765625,0.8919897079467773,1.1488510370254517,0.4149180054664612
1772740729043017000,6.068016845703125,0.9078717231750488,0.9011524319648743,-0.009620844386518002
1772740729061776400,6.0867763671875,0.9585720896720886,0.5515950918197632,-0.21318569779396057
1772740729080562200,6.105562255859375,1.0630269050598145,0.48486000299453735,-0.047798797488212585
1772740729099334700,6.124334716796875,1.1155598163604736,0.5041016936302185,0.20814619958400726
1772740729118094000,6.143093994140625,1.0685245990753174,0.6106945276260376,0.20936790108680725
1772740729136879900,6.1618798828125,0.9226847887039185,0.6994200944900513,0.09055810421705246
1772740729155652400,6.18065234375,0.7982246279716492,0.61313796043396,0.08964183181524277
1772740729174411800,6.199411865234375,0.6629219651222229,0.4265241026878357,0.21501824259757996
1772740729193197300,6.218197265625,0.4871506989002228,0.3255815804004669,0.37597647309303284
1772740729211970000,6.236969970703125,0.27915719151496887,0.30084228515625,0.4605788290500641
1772740729230742500,6.255742431640625,0.07971556484699249,0.29030516743659973,0.4769189953804016
1772740729249515000,6.274514892578125,0.0004581354442052543,0.1954711228609085,0.5282301902770996
1772740729268287700,6.293287841796875,-0.01588202826678753,-0.0015271181473508477,0.6878139972686768
1772740729287060200,6.312060302734375,-0.10048437118530273,-0.43293800950050354,0.9874345660209656
1772740729305832700,6.330832763671875,-0.2560977041721344,-1.070662498474121,1.3272184133529663
1772740729324605200,6.349605224609375,-0.49860408902168274,-1.7267124652862549,1.3838744163513184
1772740729343364900,6.36836474609375,-0.7592831254005432,-1.998997688293457,0.569004237651825
1772740729362150400,6.387150390625,-0.9744541049003601,-1.3496670722961426,-0.8052493929862976
1772740729380923000,6.4059228515625,-1.0263761281967163,-0.5092939138412476,-1.5240639448165894
1772740729399682300,6.424682373046875,-0.8205205798149109,-0.39323291182518005,-0.9571976661682129
1772740729418468000,6.443468017578125,-0.5128062963485718,-0.5720584392547607,-0.49051034450531006
1772740729437240600,6.462240478515625,-0.11453386396169662,0.08796200156211853,-0.31199023127555847
1772740729456000000,6.481,0.37826716899871826,0.6714738607406616,0.11774080991744995
1772740729474785800,6.499785888671875,0.6627692580223083,0.6070294380187988,0.314586341381073
1772740729493558300,6.518558349609375,0.6578825116157532,0.43858832120895386,0.1313321590423584
1772740729512317700,6.537317626953125,0.497229665517807,0.4040754735469818,-0.2754921019077301
1772740729531103200,6.556103271484375,0.31473904848098755,0.3703261613845825,-0.569004237651825
1772740729549876000,6.5748759765625,0.19088977575302124,0.46607646346092224,-0.5900784730911255
1772740729568635400,6.593635498046875,0.13835690915584564,0.5745018720626831,-0.4359922409057617
1772740729587421000,6.6124208984375,0.18050536513328552,0.689341127872467,-0.2522799074649811
1772740729606193700,6.631193603515625,0.19272230565547943,0.6620057225227356,-0.09834641218185425
1772740729624953000,6.649953125,0.1525591015815735,0.6311579346656799,-0.08719844371080399
1772740729643738600,6.668738525390625,0.11407572776079178,0.6517740488052368,-0.13270656764507294
1772740729662511000,6.687510986328125,0.05360184609889984,0.6201626658439636,-0.05665608495473862
1772740729681270800,6.706270751953125,0.27595025300979614,0.5564818382263184,0.1563768982887268
1772740729700056300,6.725056396484375,0.45676103234291077,0.3883461356163025,0.41705596446990967
1772740729718828800,6.743828857421875,0.5184566378593445,0.25090551376342773,0.5699204802513123
1772740729737601500,6.7626015625,0.556939959526062,0.22036315500736237,0.6096255779266357
1772740729756374000,6.7813740234375,0.5996993184089661,0.22738789021968842,0.5920637249946594
1772740729775146500,6.800146484375,0.6467345356941223,0.1785201132297516,0.6152759194374084
1772740729793906000,6.818906005859375,0.6265766024589539,0.12522368133068085,0.5909947156906128
1772740729812691700,6.837691650390625,0.6303943991661072,-0.183865025639534,0.44301697611808777
1772740729831464200,6.856464111328125,0.6655181050300598,-1.0104941129684448,0.33627140522003174
1772740729850223600,6.8752236328125,0.31886225938796997,-1.4857332706451416,-0.46989426016807556
1772740729869009200,6.894009033203125,0.11407572776079178,-0.7247702479362488,-1.6741796731948853
1772740729887782000,6.912781982421875,0.31382277607917786,0.05787777900695801,-1.6123313903808594
1772740729906541300,6.931541259765625,0.5088357925415039,-0.029626091942191124,-0.8069292306900024
1772740729925326800,6.950326904296875,0.48806697130203247,0.4408790171146393,-0.3387148082256317
1772740729944099300,6.969099365234375,0.6172611713409424,0.9382613897323608,-0.12690351903438568
1772740729962859000,6.98785888671875,0.6977402567863464,0.9788827300071716,-0.13682979345321655
1772740729981644500,7.00664453125,0.5584670901298523,0.9823951125144958,-0.5673243999481201
1772740730000417000,7.0254169921875,0.3564293682575226,0.6103891134262085,-1.0795198678970337
1772740730019176700,7.0441767578125,0.2486148327589035,0.3802524209022522,-1.2386455535888672
1772740730037962200,7.062962158203125,0.2504473626613617,0.3549022674560547,-1.1112838983535767
1772740730056734700,7.081734619140625,0.29229041934013367,0.10582929104566574,-0.6762079000473022
1772740730075494100,7.100494140625,0.23319093883037567,0.037261683493852615,-0.3970507085323334
1772740730094280000,7.119280029296875,0.27747735381126404,0.37506023049354553,-0.5004366040229797
1772740730113052400,7.138052490234375,0.47890424728393555,0.43828290700912476,-0.3833066523075104
1772740730131811800,7.156811767578125,0.5402944087982178,0.21822518110275269,0.08765657991170883
1772740730150597400,7.175597412109375,0.45080527663230896,0.18676654994487762,0.5172349214553833
1772740730169370000,7.1943701171875,0.3249707520008087,0.3026748299598694,0.610541820526123
1772740730188129500,7.213129638671875,0.22127941250801086,0.24647687375545502,0.48577627539634705
1772740730206915000,7.2319150390625,0.11499200016260147,0.23655059933662415,0.3101576864719391
1772740730225687600,7.2506875,0.010689826682209969,0.1459924876689911,0.2757975459098816
1772740730244460300,7.269460205078125,-0.06917845457792282,0.08399149775505066,0.32100024819374084
1772740730263232800,7.288232666015625,-0.0647498071193695,-0.11407572776079178,0.4112529158592224
1772740730282005200,7.307005126953125,-0.03771981969475746,-0.4497362971305847,0.4694361090660095
1772740730300765000,7.325764892578125,-0.12369657307863235,-0.7067502737045288,0.337340384721756
1772740730319550500,7.344550537109375,-0.3086305856704712,-0.8049439787864685,0.08903098851442337
1772740730338323000,7.363322998046875,-0.48394373059272766,-0.7634063363075256,-0.3211529552936554
1772740730357082400,7.382082275390625,-0.47386476397514343,-0.6412369012832642,-1.0566130876541138
1772740730375868200,7.4008681640625,-0.35765108466148376,-0.1850867122411728,-1.2184876203536987
1772740730394640600,7.419640625,-0.037567105144262314,-0.2770192325115204,-0.37139514088630676
1772740730413400000,7.438400146484375,0.27885177731513977,-0.6322268843650818,-0.14064757525920868
1772740730432185600,7.457185546875,0.49325916171073914,-0.12797249853610992,-0.3698680102825165
1772740730450958300,7.475958251953125,0.7201889157295227,0.20035789906978607,-0.23090025782585144
1772740730469717800,7.4947177734375,0.8270871639251709,0.07406523078680038,0.016645587980747223
1772740730488503300,7.51350341796875,0.7067502737045288,0.18875180184841156,-0.042453885078430176
1772740730507276000,7.532276123046875,0.5357130169868469,0.36513394117355347,-0.2351761907339096
1772740730526035500,7.551035400390625,0.4819584786891937,0.5767925381660461,-0.3214583694934845
1772740730544821000,7.569821044921875,0.5630484819412231,0.659562349319458,-0.23807771503925323
1772740730563593500,7.588593505859375,0.5699204802513123,0.5160132050514221,-0.08383878320455551
1772740730582353000,7.607352783203125,0.4291202127933502,0.41048935055732727,0.007941014133393764
1772740730601138700,7.626138671875,0.3637595474720001,0.3480302393436432,0.02076880633831024
1772740730619911200,7.6449111328125,0.42484426498413086,0.2698417901992798,0.1175880953669548
1772740730638670600,7.663670654296875,0.5459447503089905,0.19195875525474548,0.3439069986343384
1772740730657456400,7.682456298828125,0.6980457305908203,0.008704573847353458,0.5380037426948547
1772740730676228900,7.701228759765625,0.7626428008079529,-0.07543963938951492,0.5630484819412231
1772740730695001300,7.72000146484375,0.6829272508621216,-0.22372281551361084,0.532353401184082
1772740730713773800,7.73877392578125,0.6293253898620605,-0.4813476502895355,0.6342121958732605
1772740730732546300,7.75754638671875,0.6977402567863464,-0.42453885078430176,0.687050461769104
1772740730751306000,7.776305908203125,0.8116632699966431,-0.34070006012916565,0.5963396430015564
1772740730770091500,7.795091552734375,0.8426637649536133,-0.2701472043991089,0.48669254779815674
1772740730788864000,7.813864013671875,0.8173136115074158,-0.5364766120910645,0.5734328627586365
1772740730807623700,7.832623779296875,0.7107207775115967,-1.0480611324310303,0.5028799772262573
1772740730826409200,7.8514091796875,0.4695888161659241,-1.4561071395874023,-0.24815669655799866
1772740730845181700,7.870181640625,0.12888877093791962,-0.8267817497253418,-1.3113363981246948
1772740730863941000,7.888941162109375,-0.016492875292897224,0.4608842432498932,-1.7639741897583008
1772740730882727000,7.907726806640625,-0.09834641218185425,0.6849125027656555,-1.448013424873352
1772740730901499400,7.92649951171875,-0.24372805655002594,0.4330907166004181,-0.6476507782936096
1772740730920272000,7.94527197265625,-0.319320410490036,0.6899519562721252,-0.2611372172832489
1772740730939044400,7.96404443359375,-0.13591352105140686,1.0963181257247925,-0.45676103234291077
1772740730957817000,7.982817138671875,0.02626643143594265,1.126860499382019,-0.8635852932929993
1772740730976576500,8.001576416015626,-0.05008947476744652,0.9817842841148376,-1.3489034175872803
1772740730995362000,8.020362060546875,-0.09651386737823486,0.8200624585151672,-1.6350853443145752
1772740731014134500,8.039134521484375,-0.03298575058579445,0.7379034757614136,-1.5233004093170166
1772740731032894200,8.057894287109375,-0.023059483617544174,0.6270347237586975,-1.0334008932113647
1772740731051679700,8.0766796875,-0.03680354729294777,0.4743228852748871,-0.49982577562332153
1772740731070452200,8.0954521484375,0.0006108472589403391,0.4140017330646515,-0.11972606182098389
1772740731089211600,8.114211669921875,0.11926792562007904,0.19806721806526184,0.22906772792339325
1772740731107997400,8.13299755859375,0.21776704490184784,-0.0024433890357613564,0.47920966148376465
1772740731126770000,8.15177001953125,0.20493926107883453,-0.04062134400010109,0.6044333577156067
1772740731145529300,8.170529296875,0.0975828468799591,-0.07956285774707794,0.6013791561126709
1772740731164315100,8.189315185546874,0.015271181240677834,-0.15683503448963165,0.6319214701652527
1772740731183087600,8.208087646484374,-0.029778804630041122,-0.32252734899520874,0.6565080881118774
1772740731201860000,8.226860107421874,-0.013285927474498749,-0.31473904848098755,0.6533011198043823
1772740731220632600,8.245632568359374,-0.007788302376866341,-0.3721587061882019,0.6804838180541992
1772740731239405000,8.264405029296874,-0.033291175961494446,-0.5082249045372009,0.6135960817337036
1772740731258164700,8.283164794921875,-0.16019469499588013,-0.6574243903160095,0.4112529158592224
1772740731276950300,8.3019501953125,-0.3689517378807068,-0.617719292640686,0.30343836545944214
1772740731295722800,8.32072265625,-0.5917583107948303,-0.7403468489646912,0.09208522737026215
1772740731314482400,8.339482421875,-0.7525638341903687,-0.8269344568252563,-0.7579087615013123
1772740731333268000,8.35826806640625,-0.8012788891792297,-0.47798797488212585,-1.6217994689941406
1772740731352040400,8.37704052734375,-0.6366555690765381,-0.2626643180847168,-1.7421363592147827
1772740731370799900,8.3957998046875,-0.33260634541511536,-0.18126893043518066,-1.2879714965820312
1772740731389585700,8.414585693359374,0.038483377546072006,-0.058183200657367706,-0.6163448691368103
1772740731408358100,8.433358154296876,0.42927291989326477,-0.09177979826927185,-0.08994726091623306
1772740731427117600,8.45211767578125,0.7290462255477905,-0.026877280324697495,0.06123743951320648
1772740731445903000,8.470903076171876,0.8307522535324097,0.05894676223397255,-0.052990999072790146
1772740731464675800,8.48967578125,0.6116108298301697,0.20677179098129272,-0.2867927849292755
1772740731483435300,8.508435302734375,0.3471139669418335,0.3834593594074249,-0.4312581717967987
1772740731502220800,8.527220703125,0.25319617986679077,0.3364241421222687,-0.2910687327384949
1772740731520993300,8.5459931640625,0.15393351018428802,0.2951919436454773,-0.13240113854408264
1772740731539753000,8.5647529296875,0.0456608310341835,0.6508577466011047,-0.07024743407964706
1772740731558538500,8.58353857421875,0.27197974920272827,0.7530219554901123,0.005344913341104984
1772740731577311000,8.60231103515625,0.7043069005012512,0.42576053738594055,0.17424418032169342
1772740731596070400,8.6210703125,0.869846522808075,0.3274141252040863,0.37735089659690857
1772740731614856200,8.639856201171876,0.7718055248260498,0.26281702518463135,0.7128587365150452
1772740731633628700,8.658628662109376,0.624285876750946,0.11529742181301117,0.8455653190612793
1772740731652401200,8.677401123046875,0.5070032477378845,0.09437590092420578,0.5989357233047485
1772740731671174000,8.696173828125,0.4543176591396332,0.10949437320232391,0.21776704490184784
1772740731689946400,8.7149462890625,0.3761292099952698,0.11254860460758209,0.13591352105140686
1772740731708718800,8.73371875,0.3361186981201172,-0.11774080991744995,0.425607830286026
1772740731727491300,8.7524912109375,0.34787750244140625,-0.27320143580436707,0.6322268843650818
1772740731746263800,8.771263916015625,0.3449759781360626,-0.3501681983470917,0.7284353375434875
1772740731765023500,8.7900234375,0.2754921019077301,-0.6151232123374939,0.8192988634109497
1772740731783809000,8.80880908203125,0.10659284889698029,-1.0283613204956055,0.5512896776199341
1772740731802581500,8.82758154296875,-0.1620272397994995,-1.377002477645874,-0.261442631483078
1772740731821341200,8.846341064453124,-0.5163186192512512,-0.9106205701828003,-0.7369872331619263
1772740731840126700,8.865126708984375,-0.6662816405296326,-0.0528382882475853,-0.6730009913444519
1772740731858899200,8.883899169921875,-0.5083776116371155,0.29534465074539185,-0.3968980014324188
1772740731877658600,8.90265869140625,-0.31321191787719727,0.9521581530570984,0.23502348363399506
1772740731896444400,8.9214443359375,-0.07314895838499069,1.1763391494750977,0.9393303990364075
1772740731915217000,8.940216796875,0.047646086663007736,1.2128372192382812,0.9442171454429626
1772740731933976300,8.958976318359374,0.11636640131473541,1.090820550918579,0.11361759155988693
1772740731952761900,8.977761962890625,0.19898349046707153,0.9468132257461548,-0.7444701194763184
1772740731971534600,8.99653466796875,0.34192174673080444,0.8076927661895752,-0.8359444737434387
1772740731990294000,9.0152939453125,0.5467082858085632,0.44362783432006836,-0.4712686538696289
1772740732009079600,9.03407958984375,0.6714738607406616,0.10842538625001907,-0.04840964451432228
1772740732027852000,9.05285205078125,0.5978667736053467,-0.051616594195365906,0.21944688260555267
1772740732046611700,9.07161181640625,0.41354358196258545,-0.23288552463054657,0.26067906618118286
1772740732065397200,9.090397216796875,0.2348707765340805,-0.3710896968841553,0.13484452664852142
1772740732084169700,9.109169677734375,0.09208522737026215,-0.5375455617904663,0.10888352245092392
1772740732102942500,9.1279423828125,-0.03894151374697685,-0.6826218366622925,0.2483094036579132
1772740732121715000,9.14671484375,-0.18462859094142914,-0.6606312990188599,0.44423866271972656
1772740732140487400,9.1654873046875,-0.29442837834358215,-0.5998520255088806,0.5934380888938904
1772740732159260000,9.184260009765625,-0.33764582872390747,-0.7021689414978027,0.7365291118621826
1772740732178032600,9.20303271484375,-0.38452833890914917,-0.7440119385719299,0.8203678727149963
1772740732196805000,9.22180517578125,-0.43828290700912476,-0.7252284288406372,0.8861866593360901
1772740732215577600,9.24057763671875,-0.4790569543838501,-0.9071081876754761,1.005301833152771
1772740732234350000,9.25935009765625,-0.5563291311264038,-1.2939271926879883,0.9381086826324463
1772740732253122800,9.278122802734375,-0.6754443645477295,-1.4335057735443115,0.45950984954833984
1772740732271882200,9.29688232421875,-0.7995990514755249,-1.5060439109802246,-0.4259132444858551
1772740732290667800,9.315667724609375,-1.1645803451538086,-1.0912786722183228,-1.553689956665039
1772740732309440500,9.3344404296875,-1.462062954902649,0.030389651656150818,-2.2628836631774902
1772740732328200000,9.353199951171876,-1.1709941625595093,0.47951510548591614,-1.9044690132141113
1772740732346985500,9.3719853515625,-0.6407787799835205,0.22509720921516418,-0.8687775135040283
1772740732365758000,9.390758056640625,-0.21654535830020905,0.38880428671836853,-0.1366770714521408
1772740732384517400,9.409517333984375,0.1769929975271225,0.5743491649627686,0.05864133685827255
1772740732403303200,9.42830322265625,0.4990622103214264,0.6778877377510071,0.033443886786699295
1772740732422075600,9.44707568359375,0.543806791305542,0.46699273586273193,0.04459185153245926
1772740732440835000,9.4658349609375,0.3943018913269043,0.2238755226135254,-0.01954711228609085
1772740732459620900,9.484620849609374,0.3533751368522644,0.353985995054245,-0.1823379099369049
1772740732478393300,9.503393310546874,0.4593571424484253,0.5083776116371155,-0.29794076085090637
1772740732497152800,9.52215283203125,0.5624375939369202,0.5370874404907227,-0.3671191930770874
1772740732515938300,9.540938232421874,0.5648810267448425,0.6274928450584412,-0.3874298632144928
1772740732534711000,9.5597109375,0.45737189054489136,0.7443174123764038,-0.38956785202026367
1772740732553470500,9.578470458984375,0.42637139558792114,0.7061394453048706,-0.10766182839870453
1772740732572256000,9.597256103515624,0.564728319644928,0.45920443534851074,0.4324798583984375
1772740732591028500,9.616028564453124,0.7204943299293518,0.3414636254310608,0.8327375054359436
1772740732609788200,9.6347880859375,0.7450809478759766,0.23655059933662415,0.9318475127220154
1772740732628573700,9.65357373046875,0.6413896083831787,0.11315945535898209,0.8641961812973022
1772740732647346200,9.67234619140625,0.5399889945983887,0.0859767496585846,0.8015843033790588
1772740732666118700,9.69111865234375,0.48394373059272766,0.020463382825255394,0.8101361989974976
1772740732684891400,9.709891357421874,0.43568679690361023,-0.10460758954286575,0.7560762166976929
1772740732703663900,9.728663818359376,0.3509317636489868,-0.150421142578125,0.5853443741798401
1772740732722423300,9.74742333984375,0.24556060135364532,-0.4240806996822357,0.7780666947364807
1772740732741209000,9.766208984375,0.20738264918327332,-0.9152019023895264,0.9709417223930359
1772740732759981600,9.784981689453126,0.1432436853647232,-1.1401463747024536,0.2864873707294464
1772740732778741000,9.803740966796875,-0.22219568490982056,-0.5796940326690674,-1.5381133556365967
1772740732797526500,9.822526611328126,-0.6836907863616943,0.31947311758995056,-2.742398738861084
1772740732816299300,9.84129931640625,-0.6789567470550537,0.8050966858863831,-2.2831943035125732
1772740732835058700,9.86005859375,-0.49295374751091003,0.9080244302749634,-0.927724301815033
1772740732853844200,9.87884423828125,-0.45080527663230896,0.25563958287239075,-0.28725093603134155
1772740732872616700,9.89761669921875,-0.3480302393436432,0.34070006012916565,-0.6410841941833496
1772740732891376000,9.916376220703125,-0.0662769302725792,0.4318690001964569,-1.1393828392028809
1772740732910162000,9.935161865234376,0.22280654311180115,0.2620534598827362,-1.6017942428588867
1772740732928934400,9.953934326171876,0.48241662979125977,0.0065666078589856625,-1.469545841217041
