time,seconds_elapsed,z,y,x
1772740658587494700,0.17349462890625,-0.10139846801757812,0.11911964416503906,0.035349488258361816
1772740658606266600,0.1922666015625,-0.16817092895507812,0.07966017723083496,0.07682031393051147
1772740658625038600,0.21103857421875,-0.16570758819580078,0.09401249885559082,0.07185149192810059
1772740658643810600,0.229810546875,-0.141387939453125,0.12673020362854004,0.055832475423812866
1772740658662582500,0.24858251953125,-0.12952709197998047,0.10199451446533203,0.08508843183517456
1772740658681354500,0.2673544921875,-0.1693582534790039,0.05596208572387695,0.09210306406021118
1772740658700126500,0.28612646484375,-0.18711280822753906,0.005759000778198242,0.09233179688453674
1772740658718898400,0.3048984375,-0.11404800415039062,0.024201631546020508,0.09667018055915833
1772740658737670100,0.323670166015625,-0.03345775604248047,0.044240474700927734,0.1345502734184265
1772740658756442000,0.342442138671875,0.0017614364624023438,0.008152484893798828,0.15961840748786926
1772740658775214000,0.361214111328125,-0.018134117126464844,-0.022750377655029297,0.16161558032035828
1772740658793986000,0.379986083984375,-0.08946800231933594,-0.040067195892333984,0.12383177876472473
1772740658812758000,0.398758056640625,-0.053890228271484375,0.0266726016998291,0.11635518074035645
1772740658831530000,0.417530029296875,-0.09395885467529297,0.0473935604095459,0.1665976643562317
1772740658850302000,0.436302001953125,-0.1052093505859375,0.02508068084716797,0.19406399130821228
1772740658869074000,0.455073974609375,-0.1011819839477539,0.016942262649536133,0.18961575627326965
1772740658887846000,0.473845947265625,-0.13954639434814453,-0.04876875877380371,0.25772908329963684
1772740658906617900,0.492617919921875,-0.24974727630615234,0.10131239891052246,0.2342195212841034
1772740658925389800,0.511389892578125,-0.20565032958984375,0.19217443466186523,0.1923348605632782
1772740658944161800,0.530161865234375,-0.09966373443603516,0.12053823471069336,0.23830144107341766
1772740658962933800,0.548933837890625,0.07358360290527344,0.1863880157470703,0.2395193874835968
1772740658981705700,0.567705810546875,-0.11935997009277344,0.13467121124267578,0.2642807960510254
1772740659000477700,0.586477783203125,-0.43637943267822266,0.18617987632751465,0.26034778356552124
1772740659019249700,0.605249755859375,-0.20415019989013672,0.32708311080932617,0.2679561674594879
1772740659038021600,0.624021728515625,0.9749259948730469,0.2514033317565918,0.27008017897605896
1772740659056793600,0.642793701171875,1.0516595840454102,-0.6934771537780762,0.8872348070144653
1772740659075565600,0.661565673828125,0.10875892639160156,-0.8737202882766724,0.8174558877944946
1772740659094337500,0.680337646484375,-0.8239707946777344,-0.5138684511184692,0.24611997604370117
1772740659113109500,0.699109619140625,-1.2306785583496094,-0.032544612884521484,0.03289937973022461
1772740659131881500,0.717881591796875,-0.6698226928710938,0.9143590927124023,-0.15847301483154297
1772740659150653400,0.7366533203125,0.03816795349121094,1.2424077987670898,0.03864479064941406
1772740659169425400,0.75542529296875,-0.20668983459472656,1.0789117813110352,0.1490638256072998
1772740659188197400,0.774197265625,-0.7436418533325195,0.7255916595458984,0.29892057180404663
1772740659206969300,0.79296923828125,-0.7275609970092773,0.28397488594055176,0.24167346954345703
1772740659225741300,0.8117412109375,-0.2499103546142578,-0.2833540439605713,0.3246593475341797
1772740659244513300,0.83051318359375,0.06571006774902344,-0.20469021797180176,0.416091650724411
1772740659263285200,0.84928515625,0.07591438293457031,0.25091981887817383,0.22949469089508057
1772740659282057200,0.86805712890625,0.3389415740966797,-0.2578291893005371,0.1101534366607666
1772740659300829200,0.8868291015625,0.0163726806640625,-0.9495882987976074,0.5211368799209595
1772740659319601200,0.90560107421875,-0.009604454040527344,-0.33150291442871094,0.3810434937477112
1772740659338373000,0.924373046875,0.3902912139892578,0.37337708473205566,0.15146517753601074
1772740659357145000,0.94314501953125,0.5255050659179688,0.23465490341186523,0.714958131313324
1772740659375917000,0.9619169921875,-0.02600860595703125,0.7345056533813477,0.4387182593345642
1772740659394676000,0.980676025390625,-1.725583553314209,1.0754876136779785,-0.7223657369613647
1772740659413461000,0.9994609375,-2.5654406547546387,0.2472689151763916,-0.3613482713699341
1772740659432233000,1.01823291015625,-0.9894866943359375,-0.0724327564239502,0.3297368884086609
1772740659451005000,1.0370048828125,-0.5207023620605469,-0.4297449588775635,0.4241190552711487
1772740659469777000,1.05577685546875,-0.8869457244873047,-1.342300534248352,1.1612738370895386
1772740659488548900,1.074548828125,-0.8432588577270508,-1.6776313781738281,0.7079957723617554
1772740659507307800,1.093307861328125,-2.053990364074707,-0.18744373321533203,0.8615473508834839
1772740659526092800,1.1120927734375,-2.0452260971069336,1.3743946552276611,1.0162889957427979
1772740659544864800,1.13086474609375,-2.249176502227783,1.211496353149414,1.549243450164795
1772740659563636700,1.14963671875,-2.5260820388793945,-0.2374734878540039,2.4963016510009766
1772740659582408700,1.16840869140625,-1.7172250747680664,-0.6910395622253418,0.8096141219139099
1772740659601180700,1.1871806640625,-3.74320650100708,-0.8642220497131348,0.9842602014541626
1772740659619939600,1.205939697265625,-0.6814813613891602,4.4339752197265625,-1.2349581718444824
1772740659638724600,1.224724609375,2.278134346008301,4.232683181762695,-0.9447779059410095
1772740659657496600,1.24349658203125,8.97960090637207,4.615787982940674,-0.7832850813865662
1772740659676255500,1.26225537109375,11.704150199890137,3.02713680267334,-1.9600919485092163
1772740659695040500,1.28104052734375,11.04904842376709,1.3516311645507812,-0.00855138897895813
1772740659713812500,1.2998125,12.046841621398926,1.019960880279541,1.7295392751693726
1772740659732584400,1.31858447265625,9.8709135055542,2.9714250564575195,1.0662972927093506
1772740659751356400,1.3373564453125,5.802960395812988,1.0786106586456299,1.071869134902954
1772740659770128400,1.35612841796875,2.510025978088379,-1.468575119972229,0.22134298086166382
1772740659788887300,1.37488720703125,0.5292558670043945,-1.546952724456787,-0.7476333379745483
1772740659807672300,1.39367236328125,-1.243880271911621,-1.6053965091705322,-0.6680649518966675
1772740659826444500,1.412444580078125,-0.9607467651367188,-0.9971586465835571,-0.6379414796829224
1772740659845203500,1.431203369140625,-3.3569631576538086,-1.3241384029388428,-0.19005697965621948
1772740659863988500,1.449988525390625,-4.623406887054443,-1.2707080841064453,-0.5992722511291504
1772740659882760400,1.468760498046875,-7.4498066902160645,-1.230871558189392,-0.9026210308074951
1772740659901519400,1.487519287109375,-9.325987815856934,-1.29087495803833,-1.2130205631256104
1772740659920304400,1.506304443359375,-10.034390449523926,-0.9136612415313721,-1.1243600845336914
1772740659939076400,1.525076416015625,-9.752985954284668,-0.9926466941833496,-0.814621090888977
1772740659957835300,1.543835205078125,-10.60103988647461,-1.184596061706543,-0.6085234880447388
1772740659976620300,1.562620361328125,-11.764827728271484,-1.6526100635528564,-0.23320424556732178
1772740659995392300,1.581392333984375,-9.27148151397705,-2.596947431564331,-0.5676035284996033
1772740660014151200,1.600151123046875,-8.134047508239746,-3.145918130874634,-0.6276463270187378
1772740660032936200,1.618936279296875,-6.367854118347168,-2.8448243141174316,-0.45564985275268555
1772740660051708200,1.637708251953125,-3.732138156890869,-2.1803395748138428,0.07814311981201172
1772740660070467000,1.656467041015625,-2.777805805206299,-1.121112585067749,1.0862630605697632
1772740660089252400,1.67525244140625,-1.3609552383422852,0.4079399108886719,0.8723750114440918
1772740660108024300,1.6940244140625,-1.451188087463379,1.643570899963379,0.7684746980667114
1772740660126783200,1.712783203125,1.8922052383422852,3.111555814743042,-0.27200326323509216
1772740660145568300,1.731568359375,7.676270484924316,4.177036285400391,0.09928146004676819
1772740660164340200,1.75034033203125,13.185731887817383,4.619166851043701,1.549795389175415
1772740660183099100,1.76909912109375,15.336573600769043,1.945089340209961,2.590120553970337
1772740660201884200,1.78788427734375,14.79527473449707,0.12597036361694336,0.47776341438293457
1772740660220656000,1.80665625,14.580814361572266,0.17900300025939941,-0.33813565969467163
1772740660239428000,1.825427978515625,12.915773391723633,1.5544513463974,-0.15970304608345032
1772740660258200300,1.844200439453125,10.038078308105469,1.7940951585769653,0.11430433392524719
1772740660276972300,1.86297216796875,6.759626388549805,0.5610132217407227,0.5261279344558716
1772740660295731200,1.881731201171875,5.055743217468262,-0.8080635666847229,-0.371721088886261
1772740660314516200,1.90051611328125,3.864826202392578,-2.0325889587402344,0.028238024562597275
1772740660333288200,1.9192880859375,2.291036605834961,-2.1757943630218506,-0.33373916149139404
1772740660352047000,1.938047119140625,0.3045778274536133,-1.4155423641204834,-0.8400899767875671
1772740660370832100,1.95683203125,-4.36827278137207,-1.9055988788604736,-0.8910375833511353
1772740660389604000,1.97560400390625,-7.891515254974365,-1.0378527641296387,-0.9632747769355774
1772740660408363000,1.994363037109375,-9.713038444519043,0.1346583366394043,-1.2181259393692017
1772740660427148300,2.013148193359375,-10.611717224121094,0.13433122634887695,-0.8103156089782715
1772740660445920300,2.031920166015625,-9.333019256591797,-0.6736774444580078,-0.9815692901611328
1772740660464692200,2.050692138671875,-8.369105339050293,-2.37960147857666,-0.9826852083206177
1772740660483464200,2.069464111328125,-7.731045722961426,-3.4691648483276367,-1.2852860689163208
1772740660502236200,2.088236083984375,-8.058341979980469,-3.809964179992676,-1.4610651731491089
1772740660521008000,2.107008056640625,-7.124239444732666,-4.255956649780273,-1.286311149597168
1772740660539780000,2.125780029296875,-6.903776168823242,-5.090284824371338,-0.18795740604400635
1772740660558552300,2.14455224609375,-6.602629661560059,-5.658662796020508,0.5079648494720459
1772740660577324300,2.16332421875,-5.83484411239624,-5.318511486053467,0.15323758125305176
1772740660596096300,2.18209619140625,-4.852404594421387,-2.669527530670166,-0.8455383777618408
1772740660614868200,2.2008681640625,2.3550071716308594,0.5838923454284668,-1.0719150304794312
1772740660633627100,2.219627197265625,3.9155540466308594,3.610471248626709,0.9367461800575256
1772740660652412200,2.238412109375,4.553504943847656,1.141913652420044,2.2949142456054688
1772740660671184400,2.257184326171875,6.805779457092285,2.214022159576416,-0.20345544815063477
1772740660689943300,2.275943359375,12.998637199401855,1.5520541667938232,0.7587414979934692
1772740660708728300,2.294728271484375,17.48607063293457,0.9356610774993896,1.199336051940918
1772740660727500300,2.313500244140625,17.786170959472656,2.336372137069702,0.45007842779159546
1772740660746259200,2.33225927734375,14.606306076049805,4.064945220947266,-0.14782598614692688
1772740660765044200,2.351044189453125,11.178363800048828,5.2552361488342285,-0.016103744506835938
1772740660783816200,2.369816162109375,7.927219390869141,5.2440690994262695,-0.18694181740283966
1772740660802575000,2.3885751953125,4.684650421142578,4.058564186096191,-0.5669598579406738
1772740660821360400,2.4073603515625,1.561671257019043,1.9952698945999146,-0.42810866236686707
1772740660840132400,2.42613232421875,-2.2578587532043457,0.5435851812362671,-0.5277289152145386
1772740660858891300,2.444891357421875,-5.226790428161621,-0.5530766248703003,-0.5546389818191528
1772740660877676300,2.46367626953125,-7.316115379333496,-0.9925163984298706,-0.6619554162025452
1772740660896448300,2.4824482421875,-8.481870651245117,-1.2731740474700928,-0.5872564911842346
1772740660915207200,2.501207275390625,-8.588966369628906,-1.3273142576217651,-0.19224980473518372
1772740660933992400,2.519992431640625,-8.87987995147705,-1.4005635976791382,0.2620530128479004
1772740660952764400,2.538764404296875,-9.567352294921875,-2.0070831775665283,0.5863222479820251
1772740660971536400,2.557536376953125,-9.65656566619873,-1.8508663177490234,0.5659267902374268
1772740660990308400,2.576308349609375,-8.97792911529541,-2.022101879119873,0.7208625674247742
1772740661009080300,2.595080322265625,-9.554296493530273,-2.0293400287628174,0.6938604712486267
1772740661027852500,2.6138525390625,-8.76509952545166,-2.0644137859344482,0.9679397344589233
1772740661046624500,2.63262451171875,-8.000625610351562,-2.3343329429626465,1.1631522178649902
1772740661065396500,2.651396484375,-7.285346031188965,-2.1300206184387207,1.3669942617416382
1772740661084155400,2.6701552734375,-5.771467208862305,-2.1179115772247314,1.6419599056243896
1772740661102940400,2.6889404296875,-3.880533218383789,-0.7652144432067871,1.5901908874511719
1772740661121712400,2.70771240234375,-1.7961740493774414,0.5618798732757568,0.9794533252716064
1772740661140471600,2.726471435546875,1.5496816635131836,2.452247381210327,0.2081788182258606
1772740661159256600,2.745256591796875,6.590532302856445,2.4165127277374268,0.4721587300300598
1772740661178028500,2.764028564453125,10.661067962646484,1.63301682472229,-0.8747934103012085
1772740661196787500,2.782787353515625,12.567665100097656,-0.3091164827346802,-2.3062660694122314
1772740661215572500,2.801572509765625,13.273850440979004,-1.005476951599121,-2.4370150566101074
1772740661234344700,2.8203447265625,16.955856323242188,-1.158094048500061,-1.8908231258392334
1772740661253103600,2.839103515625,16.900222778320312,-1.0197792053222656,-1.8989801406860352
1772740661271888600,2.857888671875,14.734166145324707,-0.10952091217041016,-1.646522879600525
1772740661290660600,2.87666064453125,10.621992111206055,0.6183106899261475,-1.2684053182601929
1772740661309419500,2.89541943359375,6.354004859924316,0.8710241317749023,-0.7094012498855591
1772740661328204800,2.914204833984375,3.037740707397461,0.7612720727920532,0.27709436416625977
1772740661346976800,2.932976806640625,-1.0031461715698242,0.9409409761428833,0.6942896246910095
1772740661365735700,2.951735595703125,-4.103003025054932,0.7473542094230652,0.8098224401473999
1772740661384520700,2.970520751953125,-6.501721382141113,0.6127259731292725,0.36513328552246094
1772740661403293000,2.98929296875,-8.650543212890625,1.2106350660324097,0.3943139314651489
1772740661422051800,3.0080517578125,-9.163779258728027,1.8687207698822021,0.8832014799118042
1772740661440836900,3.0268369140625,-9.389294624328613,1.7007126808166504,1.3614392280578613
1772740661459608800,3.04560888671875,-9.07666301727295,1.7302272319793701,1.6888585090637207
1772740661478380800,3.064380859375,-9.546164512634277,0.5495935678482056,1.3524479866027832
1772740661497153000,3.083153076171875,-9.099969863891602,0.5177345275878906,0.8866397142410278
1772740661515925000,3.101925048828125,-8.975824356079102,0.1168333888053894,0.8541533350944519
1772740661534697000,3.120697021484375,-8.896431922912598,-0.2218645215034485,0.8073561191558838
1772740661553469000,3.139468994140625,-8.813142776489258,-0.28961533308029175,0.8324825763702393
1772740661572241200,3.1582412109375,-8.019622802734375,-0.1474476158618927,0.9757694005966187
1772740661591013000,3.17701318359375,-7.392562389373779,-0.5782489776611328,1.0051825046539307
1772740661609785000,3.19578515625,-5.843332290649414,-1.0076266527175903,0.9771099090576172
1772740661628557000,3.21455712890625,-3.1986398696899414,-1.1161412000656128,0.834821343421936
1772740661647316000,3.23331591796875,-0.23860645294189453,-0.24900496006011963,0.11955982446670532
1772740661666101200,3.252101318359375,3.220001220703125,0.8584789037704468,-0.7599595785140991
1772740661684873200,3.270873291015625,9.297937393188477,0.15585017204284668,-0.712841808795929
1772740661703632100,3.289632080078125,13.805527687072754,-1.640974998474121,-1.0991657972335815
1772740661722417200,3.308417236328125,15.730518341064453,-2.2674458026885986,-1.9259018898010254
1772740661741189400,3.327189453125,17.276308059692383,-2.21874737739563,-1.9464476108551025
1772740661759948300,3.3459482421875,18.482688903808594,-2.6063101291656494,-2.144138813018799
1772740661778733300,3.3647333984375,17.77307891845703,-1.942753791809082,-1.812913179397583
1772740661797505300,3.38350537109375,14.201323509216309,0.6200605630874634,-1.0783120393753052
1772740661816264200,3.40226416015625,11.193851470947266,2.901395559310913,0.18631196022033691
1772740661835049500,3.421049560546875,8.109676361083984,2.2372488975524902,0.8702570796012878
1772740661853821400,3.439821533203125,4.302554130554199,1.0793956518173218,1.1708818674087524
1772740661872580400,3.458580322265625,-0.6436901092529297,0.7797905206680298,1.4974901676177979
1772740661891365600,3.47736572265625,-5.621908664703369,0.9055740833282471,1.5198545455932617
1772740661910137600,3.4961376953125,-9.102940559387207,0.8722381591796875,1.466895341873169
1772740661928896500,3.514896484375,-11.235589981079102,0.6294217109680176,1.4498283863067627
1772740661947681500,3.533681640625,-12.669374465942383,0.17116355895996094,1.2903404235839844
1772740661966453800,3.552453857421875,-12.839194297790527,-0.43375086784362793,1.2218642234802246
1772740661985225700,3.571225830078125,-12.193607330322266,-0.7910819053649902,1.1971957683563232
1772740662003997700,3.589997802734375,-11.601546287536621,-1.4188053607940674,1.045737385749817
1772740662022769700,3.608769775390625,-11.00298023223877,-2.053351402282715,0.7597633600234985
1772740662041542000,3.6275419921875,-10.493188858032227,-2.23016357421875,0.8342351913452148
1772740662060313900,3.64631396484375,-8.848745346069336,-2.4787216186523438,1.0673761367797852
1772740662079085800,3.6650859375,-8.025400161743164,-2.596222162246704,1.2486865520477295
1772740662097845000,3.683844970703125,-7.336182594299316,-2.4424171447753906,1.2586429119110107
1772740662116630000,3.702630126953125,-6.5838727951049805,-2.43644380569458,1.221046805381775
1772740662135402000,3.721402099609375,-5.48063850402832,-2.0318918228149414,0.8714613914489746
1772740662154161000,3.740160888671875,-3.1580872535705566,-0.8946566581726074,0.2176029086112976
1772740662172946200,3.7589462890625,0.30167388916015625,0.6621685028076172,-0.745370090007782
1772740662191718100,3.77771826171875,6.688231468200684,1.5016741752624512,-1.317320466041565
1772740662210477000,3.79647705078125,12.13199520111084,1.9267981052398682,-1.9408303499221802
1772740662229262300,3.815262451171875,15.598628997802734,2.6299760341644287,-2.266655683517456
1772740662248034300,3.834034423828125,17.186410903930664,2.5233867168426514,-2.639627456665039
1772740662266793200,3.852793212890625,17.571073532104492,1.512181043624878,-3.5542304515838623
1772740662285578500,3.87157861328125,17.062416076660156,1.1595568656921387,-4.436740398406982
1772740662304350500,3.8903505859375,16.3521728515625,1.5273609161376953,-3.7596988677978516
1772740662323109400,3.909109375,14.764643669128418,1.790205478668213,-1.834014892578125
1772740662341894400,3.927894287109375,10.847453117370605,1.499016284942627,-0.3885546922683716
1772740662360666600,3.94666650390625,5.855922698974609,1.0840098857879639,0.49468857049942017
1772740662379425500,3.965425537109375,1.4284706115722656,1.185467004776001,1.3354967832565308
1772740662398210600,3.98421044921875,-3.024043083190918,0.9734433889389038,1.8045730590820312
1772740662416982800,4.002982666015625,-7.2178215980529785,0.409320592880249,1.6982728242874146
1772740662435741700,4.02174169921875,-9.788061141967773,-0.09339940547943115,1.6714810132980347
1772740662454526700,4.040526611328125,-10.993827819824219,-0.14010107517242432,1.8386973142623901
1772740662473298700,4.059298583984375,-11.731727600097656,-0.45777738094329834,1.6845712661743164
1772740662492057900,4.078057861328125,-11.768924713134766,-0.7338541746139526,1.5983206033706665
1772740662510843000,4.0968427734375,-11.005821228027344,-0.833207368850708,1.754770278930664
1772740662529615000,4.115614990234375,-10.417831420898438,-1.152915120124817,1.7631210088729858
1772740662548387000,4.134386962890625,-9.829431533813477,-1.3185023069381714,1.9079203605651855
1772740662567159000,4.153158935546875,-8.975360870361328,-1.6291873455047607,1.9761124849319458
1772740662585931300,4.17193115234375,-9.038256645202637,-1.730716586112976,1.9331588745117188
1772740662604703200,4.190703125,-9.287482261657715,-1.748584270477295,1.8759554624557495
1772740662623475200,4.20947509765625,-8.992530822753906,-1.497246503829956,1.8027039766311646
1772740662642247200,4.2282470703125,-8.109090805053711,-0.9659342765808105,1.9026011228561401
1772740662661006300,4.24700634765625,-7.317139148712158,-0.8261290788650513,1.7679998874664307
1772740662679791400,4.265791259765625,-5.61357307434082,-0.8019318580627441,1.1455903053283691
1772740662698563300,4.284563232421875,-2.4511642456054688,-0.22068428993225098,-0.0326002836227417
1772740662717322500,4.303322509765625,2.8711605072021484,1.3707455396652222,-1.659258246421814
1772740662736107500,4.322107421875,10.44070053100586,0.9614416360855103,-2.5772528648376465
1772740662754879500,4.34087939453125,17.878780364990234,-1.50262451171875,-3.091702938079834
1772740662773638700,4.359638671875,22.05295181274414,-2.9643001556396484,-3.6526942253112793
1772740662792423700,4.378423583984375,26.177696228027344,-3.2971630096435547,-3.6652462482452393
1772740662811195600,4.397195556640625,25.623546600341797,-2.6336398124694824,-3.665228843688965
1772740662829954800,4.415954833984375,20.50044822692871,0.3088778257369995,-3.0705690383911133
1772740662848739800,4.43473974609375,14.334076881408691,1.7080920934677124,-1.8976051807403564
1772740662867511800,4.45351171875,9.772114753723145,1.952730417251587,-0.4836544394493103
1772740662886271000,4.47227099609375,6.092751502990723,1.2410626411437988,0.7393370866775513
1772740662905056000,4.491055908203125,1.7579612731933594,0.07505857944488525,1.4741075038909912
1772740662923828000,4.509827880859375,-2.628474235534668,-0.9732687473297119,2.0520179271698
1772740662942587100,4.528587158203125,-6.615386009216309,-1.1329233646392822,2.410132884979248
1772740662961372200,4.5473720703125,-9.861645698547363,-0.6713392734527588,2.719531297683716
1772740662980144000,4.56614404296875,-12.888916015625,-0.2879672050476074,2.6584930419921875
1772740662998903300,4.5849033203125,-14.32977294921875,-0.12874674797058105,2.5645906925201416
1772740663017688300,4.603688232421875,-13.836670875549316,-0.31830334663391113,2.46142840385437
1772740663036460300,4.622460205078125,-12.78951644897461,-1.0861053466796875,2.1790764331817627
1772740663055232500,4.641232421875,-11.814107894897461,-1.8271852731704712,1.8123695850372314
1772740663074004500,4.66000439453125,-10.149879455566406,-2.5259227752685547,1.5745118856430054
1772740663092776700,4.678776611328125,-8.843111038208008,-3.1819612979888916,1.4735915660858154
1772740663111548700,4.697548583984375,-8.671337127685547,-3.253790855407715,1.3639119863510132
1772740663130320600,4.716320556640625,-8.167791366577148,-3.0021140575408936,1.5410104990005493
1772740663149092900,4.7350927734375,-8.009137153625488,-2.984729528427124,1.475772500038147
1772740663167864800,4.75386474609375,-8.391582489013672,-2.894578456878662,1.088199496269226
1772740663186636800,4.77263671875,-7.415538787841797,-2.412954807281494,1.1801211833953857
1772740663205409000,4.791408935546875,-5.839181423187256,-1.4536758661270142,1.223562240600586
1772740663224168000,4.81016796875,-3.4815263748168945,-0.0006337165832519531,0.4279114007949829
1772740663242953000,4.828952880859375,0.9726200103759766,2.1477584838867188,-0.7380552291870117
1772740663261725200,4.84772509765625,5.881867408752441,5.144216537475586,-2.586240291595459
1772740663280484000,4.866484130859375,10.673516273498535,5.956808567047119,-3.779611587524414
1772740663299269400,4.885269287109375,17.921226501464844,2.4475739002227783,-4.282896995544434
1772740663318041300,4.904041259765625,25.882797241210938,-3.8738269805908203,-4.690000534057617
1772740663336800300,4.92280029296875,25.010038375854492,-2.830939292907715,-6.470185279846191
1772740663355585500,4.94158544921875,20.539363861083984,0.6492750644683838,-6.3195271492004395
1772740663374357500,4.960357421875,17.671241760253906,2.9767343997955322,-3.4190731048583984
1772740663393116400,4.979116455078125,14.058534622192383,4.0503926277160645,-0.45351266860961914
1772740663411901700,4.997901611328125,9.926090240478516,4.113025665283203,1.1842589378356934
1772740663430673700,5.016673583984375,5.386142730712891,3.232837677001953,1.885554552078247
1772740663449432600,5.0354326171875,0.4860410690307617,1.4644248485565186,1.9129576683044434
1772740663468217900,5.0542177734375,-4.178154945373535,-0.3241446018218994,1.6511011123657227
1772740663486989800,5.07298974609375,-7.790590286254883,-1.8212034702301025,1.4146367311477661
1772740663505749000,5.0917490234375,-10.543780326843262,-2.5907301902770996,1.4252188205718994
1772740663524534000,5.110533935546875,-12.15356159210205,-2.939777374267578,1.5115188360214233
1772740663543306200,5.12930615234375,-13.301935195922852,-3.1334567070007324,1.4422659873962402
1772740663562065200,5.148065185546875,-13.566360473632812,-3.2896289825439453,1.3336553573608398
1772740663580850400,5.166850341796875,-13.35531997680664,-3.360297679901123,1.2426999807357788
1772740663599622400,5.185622314453125,-12.371747970581055,-3.605003833770752,1.295318603515625
1772740663618381300,5.20438134765625,-10.96612548828125,-3.75516414642334,1.5432779788970947
1772740663637166600,5.22316650390625,-9.990245819091797,-3.698024272918701,1.810835361480713
1772740663655938600,5.2419384765625,-9.445701599121094,-3.3908963203430176,2.002920627593994
1772740663674710500,5.26071044921875,-9.080597877502441,-3.3149805068969727,1.8100688457489014
1772740663693482800,5.279482666015625,-8.637227058410645,-3.240795850753784,1.5840343236923218
1772740663712254700,5.298254638671875,-8.130074501037598,-2.5983266830444336,1.4125537872314453
1772740663731014000,5.317013916015625,-7.31314754486084,-2.1473464965820312,1.1832984685897827
1772740663749799000,5.335798828125,-6.027428150177002,-1.405043601989746,0.7981917858123779
1772740663768571000,5.35457080078125,-3.152337074279785,0.219926118850708,0.20378166437149048
1772740663787330000,5.373330078125,0.5881519317626953,2.2527453899383545,-1.1413744688034058
1772740663806115000,5.392114990234375,5.322154998779297,3.83829927444458,-1.9977045059204102
1772740663824887300,5.41088720703125,11.446252822875977,4.269449234008789,-1.4967272281646729
1772740663843646200,5.429646240234375,18.444889068603516,1.9989243745803833,-1.5624752044677734
1772740663862431200,5.44843115234375,23.17646026611328,-2.867504596710205,-3.3037898540496826
1772740663881203500,5.467203369140625,23.65198516845703,-3.578697681427002,-5.342071533203125
1772740663899975400,5.485975341796875,21.538352966308594,-1.2649623155593872,-5.660136699676514
1772740663918747600,5.50474755859375,20.071304321289062,0.46475982666015625,-3.9304537773132324
1772740663937519600,5.52351953125,17.447917938232422,1.1116204261779785,-1.619057059288025
1772740663956278500,5.542278564453125,13.171454429626465,0.91005539894104,0.26927074790000916
1772740663975063800,5.561063720703125,8.785630226135254,0.8134969472885132,1.594739556312561
1772740663993835800,5.579835693359375,3.241304397583008,0.11540937423706055,1.8936009407043457
1772740664012595000,5.598594970703125,-2.69326114654541,-1.058110237121582,1.3573890924453735
1772740664031380000,5.6173798828125,-6.05056619644165,-1.9252636432647705,1.286064624786377
1772740664050152200,5.636152099609375,-9.562431335449219,-1.9705625772476196,1.3709790706634521
1772740664068911000,5.6549111328125,-12.291167259216309,-1.6370106935501099,1.5393948554992676
1772740664087696400,5.6736962890625,-13.476235389709473,-1.6683681011199951,1.5314161777496338
1772740664106468400,5.69246826171875,-14.163108825683594,-1.804545283317566,1.183821201324463
1772740664125240300,5.711240234375,-13.60428237915039,-2.2124805450439453,0.864510178565979
1772740664144012500,5.730012451171875,-12.644926071166992,-2.7284717559814453,0.6132262945175171
1772740664162784500,5.748784423828125,-11.484190940856934,-2.8360939025878906,0.47467368841171265
1772740664181543700,5.767543701171875,-10.10353946685791,-3.0218067169189453,0.5368130207061768
1772740664200328700,5.78632861328125,-8.88071346282959,-3.148561954498291,0.563287079334259
1772740664219101000,5.805100830078125,-7.543931484222412,-2.9068045616149902,0.8247475624084473
1772740664237859800,5.82385986328125,-6.85956335067749,-2.6689889430999756,0.9280635118484497
1772740664256645000,5.84264501953125,-6.802325248718262,-2.2980637550354004,0.8780249357223511
1772740664275417000,5.8614169921875,-6.275433540344238,-2.0580077171325684,0.9702634811401367
1772740664294189000,5.88018896484375,-5.907294273376465,-1.6125073432922363,0.8522453308105469
1772740664312961300,5.898961181640625,-4.874086856842041,-0.526310920715332,0.291927695274353
1772740664331733200,5.917733154296875,-3.1011061668395996,1.3275957107543945,-0.1454511284828186
1772740664350492400,5.936492431640625,2.0188703536987305,2.9735214710235596,0.5764673352241516
1772740664369277400,5.95527734375,8.746872901916504,3.762669563293457,0.5994282364845276
1772740664388049700,5.974049560546875,12.107064247131348,3.425863742828369,-1.1869194507598877
1772740664406808600,5.99280859375,14.75236701965332,3.0562164783477783,-3.304030656814575
1772740664425593900,6.01159375,18.694156646728516,2.7355854511260986,-4.065661430358887
1772740664444365800,6.03036572265625,20.42939567565918,1.6591482162475586,-4.778334140777588
1772740664463124700,6.049124755859375,20.229196548461914,1.2153136730194092,-4.571511268615723
1772740664481910000,6.067909912109375,18.633045196533203,1.1999261379241943,-3.3673574924468994
1772740664500682000,6.086681884765625,16.126794815063477,0.795166015625,-2.0486068725585938
1772740664519441200,6.105441162109375,11.580580711364746,0.2995612621307373,-0.7226071357727051
1772740664538226200,6.12422607421875,5.457372665405273,-0.30671238899230957,0.4593389630317688
1772740664556998400,6.142998291015625,0.6235542297363281,-1.3929963111877441,0.9998682737350464
1772740664575757300,6.16175732421875,-2.106555938720703,-2.221693277359009,1.5298762321472168
1772740664594542600,6.18054248046875,-5.430880546569824,-2.3054802417755127,2.0693604946136475
1772740664613314600,6.199314453125,-9.290877342224121,-1.846867561340332,2.2550504207611084
1772740664632073500,6.218073486328125,-11.72276496887207,-2.203604221343994,1.8010475635528564
1772740664650858800,6.236858642578125,-12.507010459899902,-2.7898166179656982,0.9519757032394409
1772740664669630700,6.255630615234375,-13.266441345214844,-1.817184567451477,1.2486562728881836
1772740664688390000,6.274389892578125,-13.430099487304688,-1.4448826313018799,0.8224387168884277
1772740664707175200,6.293175048828125,-12.826005935668945,-1.3892700672149658,0.7181879281997681
1772740664725947100,6.311947021484375,-10.822144508361816,-1.3765414953231812,0.8234871625900269
1772740664744706000,6.3307060546875,-9.241098403930664,-1.6359238624572754,0.854150652885437
1772740664763491300,6.3494912109375,-7.726644515991211,-2.2472941875457764,0.7662782669067383
1772740664782263300,6.36826318359375,-7.383366584777832,-2.340437412261963,0.5669551491737366
1772740664801022500,6.3870224609375,-7.038097381591797,-2.155442714691162,0.6294387578964233
1772740664819807500,6.405807373046875,-7.1089348793029785,-2.275317430496216,0.49829721450805664
1772740664838579700,6.424579833984375,-6.7186994552612305,-2.300429105758667,0.5730046629905701
1772740664857351700,6.4433515625,-6.620549201965332,-1.2744450569152832,0.6343207955360413
1772740664876124000,6.4621240234375,-5.389531135559082,-0.2239537239074707,0.6577038764953613
1772740664894895900,6.480895751953125,-2.5307178497314453,0.8663585186004639,-0.03379088640213013
1772740664913655000,6.499655029296875,1.0414905548095703,3.498018264770508,-1.5056551694869995
1772740664932440000,6.518440185546875,6.263826370239258,5.642186164855957,-2.387742519378662
1772740664951212300,6.53721240234375,13.332647323608398,2.747645854949951,-1.8031666278839111
1772740664969971200,6.55597119140625,19.273513793945312,-1.2480484247207642,-2.4564619064331055
1772740664988756500,6.574756591796875,21.432483673095703,-3.4960989952087402,-2.8588638305664062
1772740665007528400,6.593528564453125,18.74863624572754,-0.6982178688049316,-4.731278419494629
1772740665026287600,6.61228759765625,17.178836822509766,1.3858298063278198,-4.785192489624023
1772740665045072600,6.63107275390625,13.869668006896973,1.4937704801559448,-4.130506992340088
1772740665063844900,6.649844970703125,13.71066665649414,1.5976953506469727,-1.9685494899749756
1772740665082603800,6.668603759765625,11.478636741638184,1.0530979633331299,-0.37554931640625
1772740665101389000,6.68738916015625,7.679619789123535,-0.42236268520355225,-0.014743030071258545
1772740665120161000,6.7061611328125,4.617835998535156,-0.9020735621452332,0.5494550466537476
1772740665138920200,6.724920166015625,0.7897491455078125,-1.3157192468643188,0.7729522585868835
1772740665157705200,6.743705322265625,-2.146132469177246,-1.765986442565918,0.9920892715454102
1772740665176477400,6.7624775390625,-5.150725364685059,-1.4536333084106445,1.244295597076416
1772740665195236400,6.781236328125,-8.93842601776123,-0.8035979270935059,1.1274226903915405
1772740665214021600,6.800021728515625,-11.802621841430664,-0.3213292360305786,0.8652605414390564
1772740665232793600,6.818793701171875,-13.361980438232422,0.19894695281982422,0.7668219804763794
1772740665251552800,6.837552734375,-13.893710136413574,0.02541482448577881,0.45787790417671204
1772740665270337800,6.856337890625,-13.422077178955078,-0.2509725093841553,0.2747088074684143
1772740665289110000,6.875110107421875,-12.492708206176758,-0.5215468406677246,0.3762095868587494
1772740665307869000,6.893868896484375,-11.176021575927734,-0.7323603630065918,0.6346805095672607
1772740665326654200,6.912654296875,-9.601229667663574,-1.3531668186187744,0.7033352255821228
1772740665345426200,6.93142626953125,-9.336183547973633,-2.312821388244629,0.5600187182426453
1772740665364185300,6.950185302734375,-7.559422016143799,-2.253117322921753,0.9661540985107422
1772740665382970600,6.968970703125,-7.10689640045166,-1.9495384693145752,1.3662900924682617
1772740665401742600,6.98774267578125,-6.209285259246826,-1.3363522291183472,1.9076979160308838
1772740665420514800,7.006514892578125,-6.0811285972595215,-1.4809539318084717,2.069060802459717
1772740665439286800,7.025286865234375,-5.552828788757324,-0.9716240167617798,1.4052491188049316
1772740665458059000,7.04405908203125,-3.4232425689697266,0.07255721092224121,-0.19429057836532593
1772740665476818000,7.06281787109375,-0.3383750915527344,1.8490052223205566,-2.5223350524902344
1772740665495603200,7.081603271484375,6.1149091720581055,3.396728277206421,-3.11447811126709
1772740665516893700,7.102893798828125,14.016417503356934,1.32893705368042,-2.223076105117798
1772740665530973000,7.116972900390625,15.224629402160645,-1.0765032768249512,-3.246349811553955
1772740665545052000,7.131052001953125,15.901761054992676,-2.8140487670898438,-4.073318004608154
1772740665559131000,7.145130859375,18.10594940185547,-2.0029428005218506,-4.842927932739258
1772740665573210000,7.159210205078125,18.727096557617188,-0.1966327428817749,-5.025114059448242
1772740665587289000,7.1732890625,18.362197875976562,1.4465718269348145,-4.322814464569092
1772740665601368000,7.1873681640625,19.412158966064453,2.4143600463867188,-2.067394733428955
1772740665627007700,7.2130078125,17.764591217041016,3.142324447631836,0.9562463164329529
1772740665645767000,7.231766845703125,11.919427871704102,2.9002976417541504,1.8455429077148438
1772740665664552200,7.25055224609375,6.745654106140137,1.8785723447799683,2.422971487045288
1772740665683324200,7.26932421875,3.3613386154174805,-0.08949530124664307,2.3422739505767822
1772740665702083300,7.288083251953125,-2.091930389404297,-0.722306489944458,1.5253098011016846
1772740665720868400,7.306868408203125,-7.232207775115967,-0.6198544502258301,1.0039374828338623
1772740665739640600,7.325640625,-9.223675727844238,-0.8549309968948364,0.6159928441047668
1772740665758399500,7.3443994140625,-10.31836986541748,-1.4544410705566406,0.12025675177574158
1772740665777184800,7.363184814453125,-11.709833145141602,-1.376356601715088,-0.10722079873085022
1772740665795957000,7.38195703125,-12.322322845458984,-1.236363172531128,-0.333386093378067
1772740665814716000,7.4007158203125,-12.496004104614258,-1.153740644454956,-0.5846325159072876
1772740665833501200,7.419501220703125,-12.302558898925781,-0.860763430595398,-0.5850845575332642
1772740665852273200,7.438273193359375,-11.186050415039062,-0.9786332845687866,-0.7093831896781921
1772740665871045400,7.45704541015625,-10.652647018432617,-1.3946566581726074,-0.7825668454170227
1772740665889817300,7.4758173828125,-8.897331237792969,-1.5129735469818115,-0.7213056087493896
1772740665908589600,7.494589599609375,-7.983062744140625,-1.8191107511520386,-0.5078501105308533
1772740665927348500,7.513348388671875,-8.451919555664062,-1.870779037475586,-0.3568882346153259
1772740665946133800,7.5321337890625,-7.747622013092041,-1.9317959547042847,-0.0029913485050201416
1772740665964906000,7.550906005859375,-7.257076263427734,-2.0201919078826904,0.07967522740364075
1772740665983678000,7.569677978515625,-4.923837184906006,-1.5571776628494263,0.4546012878417969
1772740666002450200,7.5884501953125,-2.773311138153076,-0.8940447568893433,0.25386473536491394
1772740666021222100,7.60722216796875,-0.41512393951416016,0.9493973255157471,-0.5761145353317261
1772740666039981300,7.625981201171875,4.459875106811523,2.129077672958374,0.01749485731124878
1772740666058766300,7.644766357421875,10.020055770874023,1.0802483558654785,0.8512796759605408
1772740666077538600,7.66353857421875,16.71461296081543,-1.1873408555984497,0.3380020558834076
1772740666096297500,7.68229736328125,18.834375381469727,-3.2251148223876953,-1.0620970726013184
1772740666115082800,7.701082763671875,19.342458724975586,-1.9353724718093872,-1.3819912672042847
1772740666133855000,7.71985498046875,17.8886775970459,0.8575458526611328,-1.3813058137893677
1772740666152614000,7.73861376953125,14.590801239013672,2.4999983310699463,-1.526475429534912
1772740666171399200,7.757399169921875,11.36207103729248,4.03749942779541,-0.9092192053794861
1772740666190171400,7.77617138671875,8.405852317810059,4.697437763214111,-0.05365835130214691
1772740666208930300,7.794930419921875,6.1403656005859375,2.9093847274780273,0.21494537591934204
1772740666227715600,7.813715576171875,4.283440589904785,0.540178656578064,0.3613981008529663
1772740666246487600,7.832487548828125,1.6028470993041992,-1.2964534759521484,0.5820636749267578
1772740666265246700,7.851246826171875,-1.1054563522338867,-1.9620839357376099,0.8778770565986633
1772740666284032000,7.870031982421875,-4.201173305511475,-1.9302810430526733,1.0170869827270508
1772740666302804000,7.888803955078125,-6.677003860473633,-1.8978179693222046,0.6387929916381836
1772740666321563100,7.907563232421875,-8.516526222229004,-1.720705270767212,0.2325017750263214
1772740666340348200,7.92634814453125,-9.606213569641113,-0.7251687049865723,0.1769450306892395
1772740666359120400,7.945120361328125,-10.463377952575684,-0.04787325859069824,0.3583337962627411
1772740666377892600,7.963892578125,-10.41954231262207,-0.02660536766052246,0.6874916553497314
1772740666396664600,7.98266455078125,-10.31299877166748,-0.12043225765228271,0.9164440631866455
1772740666415436800,8.001436767578125,-10.342751502990723,-0.36687469482421875,0.892035186290741
1772740666434209000,8.020208984375,-9.467020988464355,-0.9714258909225464,0.6686146259307861
1772740666452981000,8.03898095703125,-9.10317325592041,-1.5948536396026611,0.5315266251564026
1772740666471753200,8.057753173828125,-8.547956466674805,-1.7548871040344238,0.6752420663833618
1772740666490525200,8.076525146484375,-8.416582107543945,-1.7151193618774414,0.8390152454376221
1772740666509297400,8.09529736328125,-8.120725631713867,-1.3337510824203491,0.9992370009422302
1772740666528069600,8.114069580078125,-7.070612907409668,-1.0164105892181396,1.240330696105957
1772740666546828500,8.13282861328125,-5.977069854736328,-0.2403477430343628,1.3699615001678467
1772740666565613800,8.15161376953125,-3.4399991035461426,1.6099278926849365,1.4257690906524658
1772740666584386000,8.170385986328125,0.9070835113525391,2.8698837757110596,1.4995174407958984
1772740666603145000,8.18914501953125,7.285965919494629,2.020594596862793,1.2271480560302734
1772740666621930200,8.20793017578125,12.400067329406738,-0.10938584804534912,-0.7202805876731873
1772740666640702200,8.2267021484375,14.353960037231445,-1.6782419681549072,-1.836105465888977
1772740666659461400,8.24546142578125,17.77741241455078,-1.8382863998413086,-1.6580603122711182
1772740666678246700,8.26424658203125,18.203556060791016,-1.0297296047210693,-2.010570764541626
1772740666697018600,8.2830185546875,16.04668426513672,0.8842766284942627,-2.293696880340576
1772740666715777800,8.30177783203125,14.151164054870605,2.325510025024414,-2.247307300567627
1772740666734563000,8.32056298828125,12.271045684814453,2.963228464126587,-1.7008403539657593
1772740666753335000,8.3393349609375,9.69311809539795,3.3394417762756348,-1.1160709857940674
1772740666772094200,8.35809423828125,5.81742000579834,2.61460542678833,-1.2296534776687622
1772740666790879500,8.37687939453125,2.871347427368164,1.2095727920532227,-1.1205344200134277
1772740666809651500,8.3956513671875,0.2627553939819336,-0.04862642288208008,-0.4083705544471741
1772740666828410600,8.41441064453125,-2.2573304176330566,-0.9972848892211914,0.4694799780845642
1772740666847195600,8.433195556640625,-4.334379196166992,-1.5948598384857178,1.2968482971191406
1772740666865967900,8.4519677734375,-6.282686233520508,-2.302489757537842,1.5502910614013672
1772740666884727000,8.47072705078125,-7.652139186859131,-2.718825340270996,1.3684604167938232
1772740666903512000,8.489511962890624,-9.463208198547363,-2.507236957550049,1.0273919105529785
1772740666922284300,8.5082841796875,-10.657090187072754,-2.009249687194824,0.7766057252883911
1772740666941043200,8.527043212890625,-11.085317611694336,-1.608700156211853,0.5428921580314636
1772740666959828500,8.545828369140626,-11.451544761657715,-1.393668293952942,0.3259928226470947
1772740666978600700,8.5646005859375,-10.608922004699707,-1.276848316192627,0.36720067262649536
1772740666997373000,8.583373046875,-9.832374572753906,-1.5016111135482788,0.3508526086807251
1772740667016145000,8.602144775390625,-8.779550552368164,-1.806872010231018,0.4080764055252075
1772740667034917000,8.620917236328125,-7.897389888763428,-2.1328177452087402,0.5565457940101624
1772740667053676000,8.639676025390624,-7.3108110427856445,-2.30393648147583,0.5685569047927856
1772740667072461300,8.65846142578125,-6.570562362670898,-1.9565086364746094,0.7550731897354126
1772740667091233500,8.677233642578125,-6.376736164093018,-1.4804495573043823,0.8533761501312256
1772740667109992400,8.695992431640626,-5.325880527496338,-0.9573757648468018,0.9612897038459778
1772740667128777700,8.71477783203125,-3.744720935821533,-0.18896174430847168,0.7083089351654053
1772740667147550000,8.733550048828125,-2.1081628799438477,1.218644618988037,0.01827293634414673
1772740667166308900,8.752308837890626,1.2416419982910156,3.1032485961914062,-0.823100209236145
1772740667185094100,8.77109423828125,3.739323616027832,3.5227205753326416,-1.7241848707199097
1772740667203866400,8.789866455078124,8.21450138092041,2.2455763816833496,-2.018796682357788
1772740667222625500,8.80862548828125,13.011102676391602,0.4379241466522217,-2.128077745437622
1772740667241410600,8.82741064453125,15.730300903320312,-1.335977554321289,-2.028453826904297
1772740667260182800,8.846182861328124,17.075803756713867,-1.2848507165908813,-1.9934982061386108
1772740667278941700,8.864941650390625,16.23373031616211,-0.6905578374862671,-1.8563144207000732
1772740667297727000,8.88372705078125,15.170186996459961,0.46061253547668457,-0.9307230114936829
1772740667316499200,8.902499267578126,13.610983848571777,1.529773235321045,0.1167897880077362
1772740667335258000,8.921258056640625,11.324387550354004,2.0039525032043457,0.805606484413147
1772740667354043400,8.94004345703125,8.131142616271973,2.1591100692749023,1.0111260414123535
1772740667372815600,8.958815673828125,4.400206565856934,1.793428659439087,0.9038323163986206
1772740667391574800,8.97757470703125,1.2758140563964844,1.1878267526626587,0.99876469373703
1772740667410359800,8.99635986328125,-0.9182357788085938,0.5618085861206055,1.1024492979049683
1772740667429132000,9.015132080078125,-3.2031965255737305,-0.1748133897781372,0.945810079574585
1772740667447891200,9.03389111328125,-5.251245498657227,-0.2070300579071045,0.792255163192749
1772740667466676200,9.05267626953125,-7.317180633544922,0.20190048217773438,0.7498170733451843
1772740667485448400,9.071448486328125,-8.972198486328125,0.6509305238723755,0.6801178455352783
1772740667504207600,9.09020751953125,-9.817206382751465,0.4937915802001953,0.5562669038772583
1772740667522992600,9.10899267578125,-10.95279598236084,-0.15912163257598877,0.12153208255767822
1772740667541764900,9.127764892578124,-10.939619064331055,-0.6526272296905518,-0.12401673197746277
1772740667560537000,9.146537109375,-10.51500129699707,-0.9955252408981323,-0.16721290349960327
1772740667579309000,9.16530908203125,-9.505160331726074,-1.4095231294631958,-0.10207831859588623
1772740667598081300,9.184081298828126,-8.818168640136719,-1.9956461191177368,-0.0873337984085083
1772740667616840400,9.20284033203125,-8.257814407348633,-2.087888717651367,-0.07455763220787048
1772740667635625700,9.221625732421876,-6.9944868087768555,-2.1856985092163086,0.15203996002674103
1772740667654397700,9.240397705078125,-6.030399799346924,-2.2837047576904297,0.18263864517211914
1772740667673156900,9.259156982421874,-4.365810871124268,-1.9688535928726196,0.24349208176136017
1772740667691942100,9.277942138671875,-3.1157774925231934,-1.4748173952102661,0.18768274784088135
1772740667710714000,9.296714111328125,-1.8519105911254883,-0.744525671005249,-0.113303542137146
1772740667729473300,9.315473388671874,0.2483062744140625,0.3831503391265869,-0.7426941990852356
1772740667748258600,9.334258544921875,2.9433116912841797,1.6709563732147217,-1.656721830368042
1772740667767030500,9.353030517578125,6.065695762634277,1.6679377555847168,-1.6584700345993042
1772740667785789700,9.371789794921876,8.833976745605469,0.8479170799255371,-1.5921034812927246
1772740667804575000,9.390574951171875,10.118155479431152,-0.5677149295806885,-2.009483814239502
1772740667823347200,9.40934716796875,11.24275016784668,-0.960706353187561,-2.3247745037078857
1772740667842106000,9.428106201171875,12.39622974395752,0.10271930694580078,-2.4529876708984375
1772740667860891400,9.446891357421874,12.366325378417969,1.1992027759552002,-2.536233901977539
1772740667879663400,9.465663330078126,12.792192459106445,1.759143590927124,-1.7620302438735962
1772740667898422500,9.484422607421875,12.802062034606934,1.825769305229187,-0.516304612159729
1772740667917207800,9.503207763671876,9.641865730285645,1.6005898714065552,0.16387337446212769
1772740667935980000,9.52197998046875,6.919308662414551,0.8611447811126709,-0.06771042943000793
1772740667954739000,9.540739013671875,6.659056663513184,0.18108820915222168,0.539392352104187
1772740667973524200,9.559524169921875,3.9236154556274414,-0.6063300371170044,0.19769123196601868
1772740667992296400,9.57829638671875,2.066232681274414,-1.074840784072876,0.41042837500572205
1772740668011055400,9.597055419921874,-1.2093639373779297,-1.783528208732605,0.3578718602657318
