time,seconds_elapsed,z,y,x
1772740175120184000,0.25218408203125,-0.015028953552246094,0.043274879455566406,-0.0803631842136383
1772740175138956000,0.2709560546875,-0.03919506072998047,0.004984855651855469,-0.11633527278900146
1772740175157728300,0.289728271484375,0.006827354431152344,-0.026956796646118164,-0.10930973291397095
1772740175176500500,0.30850048828125,0.05979442596435547,0.0502016544342041,-0.09383821487426758
1772740175195272400,0.3272724609375,0.02114105224609375,0.06364965438842773,-0.07883241772651672
1772740175214044700,0.346044677734375,-0.0006818771362304688,0.015793800354003906,-0.06635689735412598
1772740175232817000,0.36481689453125,-0.022355079650878906,-0.01091456413269043,-0.050906211137771606
1772740175251589000,0.383589111328125,-0.042038917541503906,-0.013376235961914062,-0.014426350593566895
1772740175270361000,0.402361083984375,-0.024017333984375,-0.028461694717407227,0.047467201948165894
1772740175289133300,0.42113330078125,0.07894706726074219,-0.0012335777282714844,0.09458762407302856
1772740175307905500,0.439905517578125,-0.07932090759277344,0.016979217529296875,0.073697030544281
1772740175326677500,0.458677490234375,-0.18328094482421875,0.07292675971984863,0.052105218172073364
1772740175345449700,0.47744970703125,-0.1526012420654297,0.05335664749145508,0.07351121306419373
1772740175364222000,0.496221923828125,-0.12241935729980469,0.07530689239501953,0.055739015340805054
1772740175382994000,0.514993896484375,-0.06588363647460938,0.06976199150085449,0.038858890533447266
1772740175401766100,0.53376611328125,-0.1499004364013672,0.08245015144348145,-0.011965453624725342
1772740175420538400,0.552538330078125,-0.23046207427978516,0.009981393814086914,-0.062405169010162354
1772740175439310600,0.571310546875,-0.18832874298095703,-0.004524946212768555,-0.08952730894088745
1772740175458082600,0.59008251953125,-0.05471515655517578,0.03428173065185547,-0.08716782927513123
1772740175476854800,0.608854736328125,0.14584636688232422,0.0908513069152832,-0.036557137966156006
1772740175495627000,0.627626953125,0.1920909881591797,0.05917096138000488,-0.00894978642463684
1772740175514399000,0.64639892578125,0.017386436462402344,-0.028852224349975586,-0.07660961151123047
1772740175533171200,0.665171142578125,-0.06199169158935547,-0.027338504791259766,-0.11191418766975403
1772740175551943400,0.683943359375,0.07396507263183594,0.05018019676208496,-0.0762898325920105
1772740175570715600,0.702715576171875,0.12701797485351562,0.0631399154663086,0.001391083002090454
1772740175589487600,0.721487548828125,-0.0671224594116211,0.048829078674316406,-0.01032593846321106
1772740175608259800,0.740259765625,-0.058770179748535156,0.010074138641357422,0.011334717273712158
1772740175627032000,0.759031982421875,-0.015254974365234375,-0.03015923500061035,0.004399657249450684
1772740175645804000,0.777803955078125,0.025943756103515625,-0.020954132080078125,-0.017301201820373535
1772740175664576300,0.796576171875,0.040551185607910156,-0.01217961311340332,-0.01236012578010559
1772740175683348500,0.815348388671875,-0.02950572967529297,0.003208160400390625,-0.04638740420341492
1772740175702120400,0.834120361328125,-0.10816669464111328,-0.042122840881347656,-0.07809454202651978
1772740175720892700,0.852892578125,-0.09663009643554688,-0.08188557624816895,-0.109051913022995
1772740175739665000,0.871664794921875,-0.02113628387451172,-0.09445881843566895,-0.10307508707046509
1772740175758437000,0.89043701171875,-0.0033960342407226562,-0.06712865829467773,-0.10222721099853516
1772740175777209000,0.909208984375,-0.01374053955078125,-0.07689142227172852,-0.08218839764595032
1772740175795981300,0.927981201171875,-0.0790853500366211,-0.06093716621398926,-0.07760006189346313
1772740175814753500,0.94675341796875,-0.1033792495727539,-0.03899788856506348,-0.052061498165130615
1772740175833525500,0.965525390625,-0.07956314086914062,0.005041360855102539,-0.008114099502563477
1772740175852297700,0.984297607421875,-0.10376548767089844,0.035994529724121094,0.011664092540740967
1772740175871070000,1.003070068359375,-0.1671915054321289,0.05014514923095703,0.02720746397972107
1772740175889842200,1.02184228515625,-0.10130500793457031,0.08479928970336914,0.05635714530944824
1772740175908614100,1.0406142578125,-0.06196022033691406,0.08959674835205078,0.033954769372940063
1772740175927386400,1.059386474609375,-0.14169788360595703,0.09111380577087402,-0.03010314702987671
1772740175946158600,1.07815869140625,-0.09590721130371094,0.07370638847351074,-0.03899037837982178
1772740175964930600,1.0969306640625,0.00283050537109375,0.04952192306518555,-0.015147179365158081
1772740175983702800,1.115702880859375,0.05465507507324219,0.035742759704589844,-0.008045852184295654
1772740176002475000,1.13447509765625,0.0701284408569336,-0.030488014221191406,-0.03972652554512024
1772740176021247200,1.153247314453125,0.028212547302246094,-0.06729555130004883,-0.07559996843338013
1772740176040019200,1.172019287109375,-0.010527610778808594,-0.03799748420715332,-0.062441468238830566
1772740176058791400,1.19079150390625,-0.025740623474121094,0.027736425399780273,-0.03667601943016052
1772740176077563600,1.209563720703125,0.018581390380859375,0.03523659706115723,-0.016416072845458984
1772740176096335600,1.228335693359375,0.006806373596191406,-0.015283346176147461,-0.02808055281639099
1772740176115107800,1.24710791015625,0.024863243103027344,0.015813827514648438,-0.011130332946777344
1772740176133880000,1.265880126953125,-0.019054412841796875,0.05867743492126465,0.005866408348083496
1772740176152652300,1.28465234375,-0.06855583190917969,0.08328676223754883,0.007943481206893921
1772740176171424300,1.30342431640625,-0.08353614807128906,0.07968759536743164,-0.0053179264068603516
1772740176190196500,1.322196533203125,-0.09676837921142578,0.07727956771850586,-0.00852203369140625
1772740176208968700,1.34096875,-0.03051280975341797,0.06502151489257812,0.005070626735687256
1772740176227740700,1.35974072265625,-0.027788162231445312,0.03656959533691406,-0.009004950523376465
1772740176246513000,1.378512939453125,-0.012248039245605469,0.014221429824829102,0.007173061370849609
1772740176265285000,1.39728515625,-0.007997512817382812,0.029149293899536133,-0.0029976963996887207
1772740176284057300,1.416057373046875,-0.04647350311279297,0.0429692268371582,-0.010722994804382324
1772740176302829300,1.434829345703125,-0.014451026916503906,0.052278995513916016,-0.026379287242889404
1772740176321601500,1.4536015625,-0.061855316162109375,0.03570199012756348,-0.04365730285644531
1772740176340373500,1.47237353515625,-0.05840873718261719,0.01708817481994629,-0.0504705011844635
1772740176359145700,1.491145751953125,-0.059723854064941406,0.0344080924987793,-0.03538471460342407
1772740176377918000,1.50991796875,-0.06655693054199219,0.0038154125213623047,-0.03762349486351013
1772740176396690200,1.528690185546875,0.006778717041015625,-0.0028295516967773438,-0.017500847578048706
1772740176415462100,1.547462158203125,-0.00049591064453125,0.018366575241088867,0.0015507638454437256
1772740176434234400,1.566234375,-0.10092353820800781,0.03319430351257324,-0.0033486485481262207
1772740176453006600,1.585006591796875,-0.16265487670898438,0.042505741119384766,-0.006746023893356323
1772740176471778600,1.603778564453125,-0.07152557373046875,0.029166221618652344,0.02199077606201172
1772740176490550800,1.62255078125,-0.034259796142578125,0.026248455047607422,0.03275829553604126
1772740176509323000,1.641322998046875,-0.05877208709716797,0.0029277801513671875,0.035532981157302856
1772740176528095200,1.66009521484375,-0.16261577606201172,-0.002029895782470703,-0.024579554796218872
1772740176546867200,1.6788671875,-0.1740713119506836,0.0469362735748291,-0.059903740882873535
1772740176565639400,1.697639404296875,-0.08428096771240234,0.04678678512573242,-0.04939550161361694
1772740176584411600,1.71641162109375,0.030517578125,0.0006139278411865234,-0.05121013522148132
1772740176603183600,1.73518359375,0.12586116790771484,-0.044321298599243164,-0.04622521996498108
1772740176621955800,1.753955810546875,0.03886222839355469,-0.039663076400756836,-0.07308611273765564
1772740176640728000,1.77272802734375,0.018953323364257812,0.004448413848876953,-0.05363839864730835
1772740176659500000,1.7915,-0.013956069946289062,0.059316396713256836,-0.04587092995643616
1772740176678272300,1.810272216796875,0.023534774780273438,0.1053004264831543,0.0024566054344177246
1772740176697044500,1.82904443359375,-0.045433998107910156,0.12463998794555664,-0.006555736064910889
1772740176715816700,1.847816650390625,-0.000728607177734375,0.08625102043151855,0.019497662782669067
1772740176734588700,1.866588623046875,0.024727821350097656,0.055177927017211914,0.03158789873123169
1772740176753361000,1.88536083984375,0.024515151977539062,0.059778451919555664,0.027945399284362793
1772740176772133000,1.904133056640625,-0.05677032470703125,0.07961344718933105,0.02076900005340576
1772740176790905000,1.922905029296875,-0.07416439056396484,0.07365942001342773,0.0036407411098480225
1772740176809677300,1.94167724609375,-0.027469635009765625,0.008947610855102539,0.009482771158218384
1772740176828449500,1.960449462890625,-0.08452987670898438,-0.01834559440612793,-0.01770058274269104
1772740176847221800,1.9792216796875,-0.08403301239013672,-0.03016948699951172,-0.01659911870956421
1772740176865993700,1.99799365234375,-0.08759880065917969,-0.01884150505065918,-0.029975593090057373
1772740176884766000,2.016765869140625,-0.055495262145996094,-0.022675037384033203,-0.024254173040390015
1772740176903538200,2.0355380859375,-0.06307697296142578,-0.024775028228759766,-0.018688559532165527
1772740176922310100,2.05431005859375,-0.07328033447265625,-0.0022497177124023438,-0.036567479372024536
1772740176941082400,2.073082275390625,-0.031963348388671875,0.0026400089263916016,-0.02405884861946106
1772740176959854600,2.0918544921875,-0.039422035217285156,0.02267146110534668,-0.018834620714187622
1772740176978626600,2.11062646484375,-0.012942314147949219,0.030724048614501953,-0.005400329828262329
1772740176997398800,2.129398681640625,-0.012890815734863281,0.05919766426086426,-0.006528705358505249
1772740177016171000,2.1481708984375,-0.052451133728027344,0.06421566009521484,-0.00287550687789917
1772740177034943200,2.166943115234375,-0.033392906188964844,0.054959774017333984,0.005417764186859131
1772740177053715200,2.185715087890625,0.009703636169433594,0.043190956115722656,0.009676307439804077
1772740177072487400,2.2044873046875,0.03499031066894531,0.017752647399902344,0.018355995416641235
1772740177091259600,2.223259765625,-0.02566814422607422,0.0004146099090576172,-0.006085455417633057
1772740177110031600,2.242031494140625,-0.034913063049316406,-0.008178234100341797,-0.00830724835395813
1772740177128803800,2.260803955078125,0.03260326385498047,-0.00563502311706543,0.018701612949371338
1772740177147576000,2.279576171875,-0.03699493408203125,-0.011208772659301758,-0.0009302496910095215
1772740177166348300,2.298348388671875,-0.17229938507080078,0.03795623779296875,-0.0722140371799469
1772740177185120300,2.317120361328125,-0.13044357299804688,0.03641176223754883,-0.06346866488456726
1772740177203892500,2.335892578125,-0.045009613037109375,-0.009021520614624023,-0.05155742168426514
1772740177222664400,2.35466455078125,0.010188102722167969,-0.06976056098937988,-0.07210874557495117
1772740177241436700,2.373436767578125,-0.03940582275390625,-0.11272835731506348,-0.09932321310043335
1772740177260209000,2.392208984375,-0.039284706115722656,-0.08353900909423828,-0.1081385612487793
1772740177278981000,2.410981201171875,-0.02563762664794922,-0.05850958824157715,-0.08054357767105103
1772740177297753000,2.429753173828125,-0.04773902893066406,0.0037059783935546875,-0.05786648392677307
1772740177316525300,2.448525390625,-0.024924278259277344,0.013231754302978516,-0.03877571225166321
1772740177335297500,2.467297607421875,0.006893157958984375,0.010680913925170898,-0.025269120931625366
1772740177354069500,2.486069580078125,-0.010541915893554688,0.01749730110168457,-0.011977344751358032
1772740177372841700,2.504841796875,-0.053832054138183594,0.04574775695800781,-0.020949184894561768
1772740177391614000,2.523614013671875,-0.11816024780273438,0.05454254150390625,-0.036893218755722046
1772740177410386200,2.54238623046875,-0.041812896728515625,0.03777623176574707,-0.03194299340248108
1772740177429158100,2.561158203125,0.025852203369140625,0.005820035934448242,-0.010214388370513916
1772740177447930400,2.579930419921875,0.02922344207763672,-0.007805585861206055,-0.01293763518333435
1772740177466702600,2.59870263671875,-0.013594627380371094,-0.002118349075317383,-0.017934948205947876
1772740177485474600,2.617474609375,0.014529228210449219,-0.009089469909667969,-0.01028287410736084
1772740177504246800,2.636246826171875,0.004467010498046875,0.027791976928710938,-0.004138976335525513
1772740177523019000,2.65501904296875,-0.059571266174316406,0.043329477310180664,-0.006391167640686035
1772740177541791000,2.673791015625,-0.05931663513183594,0.05624794960021973,-0.021398484706878662
1772740177560563200,2.692563232421875,-0.041229248046875,0.023509740829467773,-0.02243262529373169
1772740177579335400,2.71133544921875,-0.035208702087402344,0.013504981994628906,-0.035090088844299316
1772740177598107600,2.730107666015625,-0.042250633239746094,-0.0049898624420166016,-0.03838154673576355
1772740177616879600,2.748879638671875,-0.03457832336425781,-0.016707181930541992,-0.046261221170425415
1772740177635651800,2.76765185546875,-0.05790424346923828,-0.019368886947631836,-0.05364882946014404
1772740177654424000,2.786424072265625,-0.0023193359375,-0.010868072509765625,-0.025919675827026367
1772740177673196000,2.805196044921875,-0.07931327819824219,-0.0019314289093017578,-0.011268526315689087
1772740177691968300,2.82396826171875,-0.05722236633300781,0.020225048065185547,0.0051718950271606445
1772740177710740500,2.842740478515625,-0.1215972900390625,0.028599023818969727,0.005770593881607056
1772740177729512400,2.861512451171875,-0.06937885284423828,0.04149913787841797,0.010012835264205933
1772740177748284700,2.88028466796875,-0.024682044982910156,0.0019884109497070312,0.029842883348464966
1772740177767057000,2.899056884765625,-0.04889488220214844,0.018639564514160156,0.012072831392288208
1772740177785829000,2.9178291015625,-0.14426136016845703,0.08097553253173828,-0.016909003257751465
1772740177804601000,2.93660107421875,-0.14392662048339844,0.13332200050354004,-0.006039351224899292
1772740177823373300,2.955373291015625,-0.03440570831298828,0.09185266494750977,0.01999109983444214
1772740177842145500,2.9741455078125,0.007605552673339844,0.03819847106933594,-0.0010444223880767822
1772740177860917500,2.99291748046875,-0.011073112487792969,0.024868488311767578,-0.023972034454345703
1772740177879689700,3.011689697265625,-0.03531932830810547,0.005113363265991211,-0.053396910429000854
1772740177898462000,3.0304619140625,-0.021988868713378906,-0.015398263931274414,-0.08094441890716553
1772740177917234000,3.04923388671875,0.025064468383789062,-0.04058337211608887,-0.05731838941574097
1772740177936006100,3.068006103515625,0.0029449462890625,0.02200627326965332,-0.02851065993309021
1772740177954778400,3.0867783203125,-0.02358722686767578,0.009050846099853516,-0.028201699256896973
1772740177973550300,3.10555029296875,-0.012378692626953125,-0.021957874298095703,-0.024716675281524658
1772740177992322600,3.124322509765625,-0.07430744171142578,-0.014164447784423828,-0.03917393088340759
1772740178011094800,3.1430947265625,-0.12285041809082031,0.06248044967651367,-0.044793784618377686
1772740178029867000,3.161866943359375,-0.1356029510498047,0.0919656753540039,-0.03146582841873169
1772740178048639000,3.180638916015625,-0.08025550842285156,0.08728742599487305,0.0006120949983596802
1772740178067411200,3.1994111328125,-0.04252910614013672,0.08229327201843262,0.03602157533168793
1772740178086183400,3.218183349609375,-0.05021858215332031,0.09047937393188477,0.04890748858451843
1772740178104955400,3.236955322265625,-0.05187702178955078,0.08319544792175293,0.0374673455953598
1772740178123727600,3.2557275390625,-0.01862335205078125,0.07889437675476074,0.03695416450500488
1772740178142499800,3.274499755859375,-0.028493881225585938,0.09190845489501953,0.005610018968582153
1772740178161272000,3.29327197265625,-0.03766345977783203,0.054320335388183594,-0.026136398315429688
1772740178180044000,3.3120439453125,-0.04790496826171875,0.035451650619506836,-0.06730934977531433
1772740178198816300,3.330816162109375,-0.0048542022705078125,0.012569665908813477,-0.07783778011798859
1772740178217588500,3.34958837890625,-0.010881423950195312,0.006292104721069336,-0.10094094276428223
1772740178236360400,3.3683603515625,0.03295421600341797,-0.01933574676513672,-0.0981920063495636
1772740178255132700,3.387132568359375,-0.0031423568725585938,-0.022435665130615234,-0.10451102256774902
1772740178273905000,3.40590478515625,-0.014815330505371094,-0.0061495304107666016,-0.08253166079521179
1772740178292676900,3.4246767578125,-0.04423809051513672,0.014712333679199219,-0.05930130183696747
1772740178311449000,3.443448974609375,-0.052115440368652344,0.022902488708496094,-0.03144305944442749
1772740178330221300,3.46222119140625,-0.045784950256347656,0.04855680465698242,-0.0013912171125411987
1772740178348993500,3.48099365234375,-0.0742788314819336,0.053260087966918945,0.02597852051258087
1772740178367765500,3.499765625,-0.13419723510742188,0.04626297950744629,0.03268757462501526
1772740178386537700,3.518537841796875,-0.05326366424560547,0.05695652961730957,0.06178891658782959
1772740178405310000,3.53731005859375,-0.017728805541992188,0.06331062316894531,0.03928177058696747
1772740178424082000,3.55608203125,-0.026903152465820312,0.08478903770446777,-0.004745200276374817
1772740178442854100,3.574854248046875,0.1097726821899414,0.09197235107421875,0.016650542616844177
1772740178461626400,3.59362646484375,0.14676570892333984,0.027767181396484375,-0.0014081299304962158
1772740178480398300,3.6123984375,0.02953815460205078,-0.02327108383178711,-0.03812062740325928
1772740178499170600,3.631170654296875,-0.0066967010498046875,-0.017300844192504883,-0.05597352981567383
1772740178517942800,3.64994287109375,-0.033240318298339844,-0.03934931755065918,-0.03190508484840393
1772740178536714800,3.66871484375,-0.09634876251220703,0.009201765060424805,-0.036093831062316895
1772740178555487000,3.687487060546875,-0.13052654266357422,0.033744096755981445,-0.03276616334915161
1772740178574259200,3.70625927734375,-0.1316680908203125,0.026496410369873047,-0.04428347945213318
1772740178593031400,3.725031494140625,-0.12387752532958984,-0.026018857955932617,-0.03955787420272827
1772740178611803400,3.743803466796875,-0.11907768249511719,-0.0321352481842041,-0.06282365322113037
1772740178630575600,3.76257568359375,-0.08050918579101562,-0.007584571838378906,-0.05385398864746094
1772740178649347800,3.781347900390625,-0.06202507019042969,0.018542766571044922,-0.03133615851402283
1772740178668119800,3.800119873046875,-0.05280590057373047,0.019945383071899414,-0.02504292130470276
1772740178686892000,3.81889208984375,-0.03629493713378906,0.010458230972290039,-0.006827056407928467
1772740178705664300,3.837664306640625,-0.031566619873046875,0.029550552368164062,-0.010954201221466064
1772740178724436200,3.856436279296875,-0.05080890655517578,0.040796756744384766,0.001718074083328247
1772740178743208400,3.87520849609375,-0.02818775177001953,0.04251432418823242,0.007743328809738159
1772740178761980700,3.893980712890625,-0.028265953063964844,0.05304265022277832,0.0017403960227966309
1772740178780753000,3.9127529296875,0.004055023193359375,0.04932689666748047,-0.008802294731140137
1772740178799524900,3.93152490234375,-0.03780555725097656,0.052510976791381836,-0.016890734434127808
1772740178818297000,3.950297119140625,-0.07581520080566406,0.05098390579223633,-0.0319744348526001
1772740178837069300,3.9690693359375,-0.0978994369506836,0.050229787826538086,-0.05503314733505249
1772740178855841300,3.98784130859375,-0.019786834716796875,0.02287769317626953,-0.04977959394454956
1772740178874613500,4.006613525390625,-0.00010204315185546875,0.003881692886352539,-0.05649283528327942
1772740178893385700,4.0253857421875,-0.03687858581542969,0.008437633514404297,-0.05138203501701355
1772740178912157700,4.04415771484375,-0.01665210723876953,-0.01008462905883789,-0.05109858512878418
1772740178930930000,4.062929931640625,-0.011247634887695312,-0.023171663284301758,-0.049219369888305664
1772740178949702100,4.0817021484375,-0.0377044677734375,-0.025408506393432617,-0.05445694923400879
1772740178968474400,4.100474365234375,-0.04668617248535156,-0.002279520034790039,-0.043295204639434814
1772740178987246300,4.119246337890625,-0.06865310668945312,0.0010166168212890625,-0.009840071201324463
1772740179006018600,4.1380185546875,-0.04289054870605469,-0.01776885986328125,0.024558275938034058
1772740179024790800,4.156790771484375,-0.03892993927001953,0.011722326278686523,0.025758355855941772
1772740179043562800,4.175562744140625,-0.13755226135253906,0.09957647323608398,0.006116092205047607
1772740179062335000,4.1943349609375,-0.13053321838378906,0.10729146003723145,0.022351384162902832
1772740179081107200,4.213107177734375,-0.028000831604003906,0.06561088562011719,0.020464837551116943
1772740179099879200,4.231879150390625,-0.05511665344238281,0.0007388591766357422,-0.0018500089645385742
1772740179118651400,4.2506513671875,-0.094879150390625,0.028239011764526367,-0.03300081193447113
1772740179137423600,4.269423583984375,-0.06859493255615234,0.030825376510620117,-0.019473418593406677
1772740179156195800,4.28819580078125,-0.0034475326538085938,0.07037353515625,0.025852292776107788
1772740179174967800,4.3069677734375,-0.10985660552978516,0.05943703651428223,0.008754745125770569
1772740179193740000,4.325739990234375,-0.03002643585205078,0.027768373489379883,-0.01389843225479126
1772740179212512000,4.344511962890625,0.10099029541015625,-0.028435468673706055,-0.023356735706329346
1772740179231284200,4.3632841796875,0.14049816131591797,-0.041799306869506836,-0.030916333198547363
1772740179250056400,4.382056396484375,0.05675697326660156,-0.007498502731323242,-0.04438282549381256
1772740179268828700,4.40082861328125,-0.07845401763916016,0.05063652992248535,-0.05223831534385681
1772740179287600600,4.4196005859375,-0.06655311584472656,0.048647403717041016,-0.03805491328239441
1772740179306372900,4.438372802734375,0.014851570129394531,0.020687580108642578,-0.010855913162231445
1772740179325145000,4.45714501953125,0.036678314208984375,-0.0028259754180908203,-0.003822833299636841
1772740179343917000,4.4759169921875,-0.018646240234375,-0.017351150512695312,-0.00739327073097229
1772740179362689300,4.494689208984375,-0.055863380432128906,-0.0035543441772460938,-0.0016577690839767456
1772740179381461500,4.51346142578125,-0.10526657104492188,0.04335165023803711,-0.004303768277168274
1772740179400233500,4.5322333984375,-0.1287374496459961,0.05722212791442871,0.00044724345207214355
1772740179419005700,4.551005615234375,-0.11191368103027344,0.048902273178100586,0.0045737624168396
1772740179437778000,4.56977783203125,-0.0896453857421875,0.02747488021850586,0.012171924114227295
1772740179456550000,4.5885498046875,-0.119476318359375,0.007262706756591797,-0.01919350028038025
1772740179475322000,4.607322021484375,-0.08233833312988281,0.016969680786132812,-0.014169067144393921
1772740179494094300,4.62609423828125,-0.026930809020996094,0.03029918670654297,-0.0004851818084716797
1772740179512866600,4.644866455078125,-0.009892463684082031,0.01862025260925293,0.004694640636444092
1772740179531638500,4.663638427734375,-0.015280723571777344,-0.0068817138671875,0.0027501583099365234
1772740179550410800,4.68241064453125,-0.08359146118164062,0.05301260948181152,-0.000713735818862915
1772740179569182700,4.7011826171875,-0.053272247314453125,0.07291650772094727,0.00298464298248291
1772740179587955000,4.719954833984375,-0.021381378173828125,0.025515317916870117,-0.00011488795280456543
1772740179606727200,4.73872705078125,0.009387016296386719,0.004391193389892578,0.002886652946472168
1772740179625499400,4.75749951171875,0.010350227355957031,0.014022588729858398,-0.018624097108840942
1772740179644271400,4.776271240234375,0.0060749053955078125,-0.014917850494384766,-0.016183793544769287
1772740179663043600,4.795043701171875,-0.05489063262939453,0.04202604293823242,-0.06620258092880249
1772740179681815800,4.81381591796875,-0.052753448486328125,0.026021718978881836,-0.08569148182868958
1772740179700587800,4.832587890625,0.047051429748535156,-0.0201566219329834,-0.06505152583122253
1772740179719360000,4.851360107421875,0.11211490631103516,-0.09997057914733887,-0.0131244957447052
1772740179738132200,4.87013232421875,-0.01991558074951172,-0.0160825252532959,-0.10408571362495422
1772740179756904200,4.888904296875,-0.09671497344970703,-0.07059335708618164,-0.06873172521591187
1772740179775676400,4.907676513671875,-0.10773849487304688,0.008503198623657227,-0.04531821608543396
1772740179794448600,4.92644873046875,-0.061061859130859375,0.04993867874145508,0.0019868314266204834
1772740179813220600,4.945220703125,-0.05168628692626953,0.07120990753173828,0.006238281726837158
1772740179831992800,4.963992919921875,-0.019969940185546875,0.039800405502319336,-0.008457571268081665
1772740179850765000,4.98276513671875,-0.008405685424804688,0.005929231643676758,0.014573365449905396
1772740179869537300,5.001537353515625,-0.05572319030761719,0.0032880306243896484,-0.030436962842941284
1772740179888309200,5.020309326171875,-0.07426929473876953,0.03300213813781738,-0.03367963433265686
1772740179907081500,5.03908154296875,-0.03766918182373047,0.04201650619506836,-0.03915536403656006
1772740179925853700,5.057853759765625,0.013012886047363281,0.026718854904174805,-0.016326695680618286
1772740179944625700,5.076625732421875,0.02277374267578125,-0.002608060836791992,-0.01572898030281067
1772740179963398000,5.09539794921875,0.011493682861328125,-0.017447233200073242,-0.02204957604408264
1772740179982170000,5.114170166015625,0.0344085693359375,-0.004530906677246094,-0.022483736276626587
1772740180000942000,5.132942138671875,-0.015545845031738281,-0.00937509536743164,-0.01850298047065735
1772740180019714300,5.15171435546875,-0.08821868896484375,0.0005297660827636719,-0.040837764739990234
1772740180038486500,5.170486572265625,-0.11189079284667969,0.019056320190429688,-0.06405654549598694
1772740180057258500,5.189258544921875,-0.03832817077636719,-0.021073102951049805,-0.03305789828300476
1772740180076030700,5.20803076171875,-0.016180038452148438,0.011519193649291992,-0.03350004553794861
1772740180094803000,5.226802978515625,-0.014865875244140625,-0.014395713806152344,-0.017817795276641846
1772740180113575000,5.245574951171875,-0.03147602081298828,-0.018362998962402344,-0.024473756551742554
1772740180132347100,5.26434716796875,-0.043173789978027344,-0.0038399696350097656,-0.03300511837005615
1772740180151119400,5.283119384765625,0.0033359527587890625,0.03211331367492676,-0.0007303953170776367
1772740180169891300,5.301891357421875,-0.048020362854003906,0.02363729476928711,-0.007247298955917358
1772740180188663600,5.32066357421875,-0.032250404357910156,0.0031108856201171875,0.008921593427658081
1772740180207435800,5.339435791015625,-0.028284072875976562,0.02927088737487793,0.0043675899505615234
1772740180226207700,5.358207763671875,-0.09716606140136719,0.03187870979309082,-0.0056382715702056885
1772740180244980000,5.37697998046875,-0.0646810531616211,-0.004553556442260742,0.009426236152648926
1772740180263752200,5.395752197265625,-0.03064250946044922,-0.030468463897705078,0.019120454788208008
1772740180282524200,5.414524169921875,-0.10540390014648438,0.019006967544555664,-0.020425856113433838
1772740180301296400,5.43329638671875,-0.16723251342773438,0.059845685958862305,-0.03323379158973694
1772740180320068600,5.452068603515625,-0.05336284637451172,0.048769474029541016,-0.00963449478149414
1772740180338840800,5.4708408203125,0.050469398498535156,-0.0056765079498291016,-0.003340482711791992
1772740180357612800,5.48961279296875,0.01861572265625,-0.03222465515136719,-0.03969267010688782
1772740180376385000,5.508385009765625,-0.06941986083984375,-0.028035402297973633,-0.07054281234741211
1772740180395157000,5.527156982421875,-0.060194969177246094,0.02503490447998047,-0.051019519567489624
1772740180413929200,5.54592919921875,-0.02386188507080078,0.07391977310180664,-0.01828819513320923
1772740180432701400,5.564701416015625,-0.00020599365234375,0.08140349388122559,-0.003433048725128174
1772740180451473400,5.583473388671875,0.0078277587890625,0.05415487289428711,0.0016439557075500488
1772740180470245600,5.60224560546875,-0.01003265380859375,0.03213810920715332,0.0037283003330230713
1772740180489017900,5.621017822265625,-0.033394813537597656,0.020777225494384766,-0.02210596203804016
1772740180507790000,5.6397900390625,-0.07469463348388672,0.022978782653808594,-0.04323554039001465
1772740180526562000,5.65856201171875,-0.044608116149902344,0.018017292022705078,-0.020106226205825806
1772740180545334300,5.677334228515625,-0.024214744567871094,0.015438556671142578,-0.021216601133346558
1772740180564106500,5.6961064453125,-0.00775909423828125,0.007464885711669922,-0.010073244571685791
1772740180582878500,5.71487841796875,-0.05673694610595703,0.00747227668762207,-0.006274014711380005
1772740180601650700,5.733650634765625,-0.06442642211914062,0.02084803581237793,0.00026345252990722656
1772740180620423000,5.7524228515625,-0.026022911071777344,0.04500007629394531,0.018664777278900146
1772740180639195000,5.77119482421875,-0.07015609741210938,0.04171180725097656,-0.00398939847946167
1772740180657967000,5.789967041015625,-0.10144424438476562,0.014084577560424805,-0.029753416776657104
1772740180676739300,5.8087392578125,-0.04874229431152344,0.01348423957824707,-0.019134581089019775
1772740180695511300,5.82751123046875,-0.07874202728271484,0.02580857276916504,-0.028135031461715698
1772740180714283500,5.846283447265625,-0.0797882080078125,0.0043485164642333984,-0.026455849409103394
1772740180733055500,5.865055419921875,-0.03045368194580078,0.00406646728515625,-0.016325771808624268
1772740180751827700,5.88382763671875,-0.005476951599121094,0.012643575668334961,-0.018862873315811157
1772740180770600000,5.902599853515625,0.0011625289916992188,0.007069826126098633,-0.012732774019241333
1772740180789372200,5.9213720703125,-0.0047893524169921875,0.045879364013671875,0.0020969808101654053
1772740180808144100,5.94014404296875,0.0027055740356445312,0.0672149658203125,0.01497223973274231
1772740180826916400,5.958916259765625,0.013634681701660156,0.03210115432739258,0.019069254398345947
1772740180845688600,5.9776884765625,-0.10901641845703125,0.013918399810791016,0.004177749156951904
1772740180864460500,5.99646044921875,-0.11536693572998047,0.0026314258575439453,0.02425152063369751
1772740180883232800,6.015232666015625,-0.02630901336669922,0.005854606628417969,0.028480708599090576
1772740180902005000,6.0340048828125,-0.06944561004638672,0.022873878479003906,0.004456639289855957
1772740180920777000,6.05277685546875,-0.16404438018798828,0.0681002140045166,-0.02486446499824524
1772740180939549200,6.071549072265625,-0.0667104721069336,0.05872964859008789,0.0018740296363830566
1772740180958321400,6.0903212890625,0.008444786071777344,0.02105569839477539,-0.009528309106826782
1772740180977093400,6.10909326171875,0.02654552459716797,-0.040348052978515625,-0.012256711721420288
1772740180995865600,6.127865478515625,-0.07991409301757812,-0.03495335578918457,-0.07813906669616699
1772740181014637800,6.146637939453125,-0.0024881362915039062,-0.011424779891967773,-0.03654828667640686
1772740181033409800,6.165409912109375,-0.00945281982421875,0.05359625816345215,-0.027841150760650635
1772740181052182000,6.18418212890625,0.012139320373535156,0.0762479305267334,0.006923466920852661
1772740181070954200,6.202954345703125,-0.009000778198242188,0.05064892768859863,-0.009599745273590088
1772740181089726200,6.221726318359375,0.06258392333984375,0.009870767593383789,-0.013667911291122437
1772740181108498400,6.24049853515625,-0.009474754333496094,0.02271270751953125,-0.02931767702102661
1772740181127270700,6.259270751953125,-0.07097530364990234,0.06996488571166992,-0.032217562198638916
1772740181146042600,6.278042724609375,-0.04029560089111328,0.08997178077697754,-0.01589074730873108
1772740181164814800,6.29681494140625,0.03231620788574219,0.0582582950592041,0.00511699914932251
1772740181183587000,6.315587158203125,-0.022897720336914062,0.005782127380371094,0.005984067916870117
1772740181202359000,6.334359130859375,-0.054058074951171875,-0.004975795745849609,-0.004729419946670532
1772740181221131300,6.35313134765625,-0.06995487213134766,-0.01351475715637207,-0.007331490516662598
1772740181239903500,6.371903564453125,-0.08649730682373047,-0.008239269256591797,-0.005514383316040039
1772740181258675500,6.390675537109375,-0.14288330078125,0.023860692977905273,-0.00966954231262207
1772740181277447700,6.40944775390625,-0.1503162384033203,0.02168416976928711,-0.014614105224609375
1772740181296220000,6.428219970703125,-0.10376262664794922,-0.01148223876953125,-0.025818288326263428
1772740181314991900,6.446991943359375,-0.09432506561279297,-0.022343158721923828,-0.04223906993865967
1772740181333764000,6.46576416015625,-0.04478168487548828,0.019672870635986328,-0.023046761751174927
1772740181352536300,6.484536376953125,-0.03944873809814453,0.03290677070617676,-0.00028270483016967773
1772740181371308300,6.503308349609375,-0.06264114379882812,0.02570033073425293,-0.015391319990158081
1772740181390080500,6.52208056640625,-0.06725692749023438,0.03776216506958008,-0.015988081693649292
1772740181408852700,6.540852783203125,0.028881072998046875,0.03862309455871582,-0.004707992076873779
1772740181427624700,6.559624755859375,0.055011749267578125,0.0029091835021972656,0.010548889636993408
1772740181446397000,6.57839697265625,0.04561424255371094,0.005517005920410156,0.02654394507408142
1772740181465169200,6.597169189453125,0.019535064697265625,0.022504806518554688,0.01374080777168274
1772740181483941000,6.615941162109375,-0.02785015106201172,0.011573076248168945,0.006874173879623413
1772740181502713300,6.63471337890625,-0.02888965606689453,0.004403114318847656,0.0002575218677520752
1772740181521485600,6.653485595703125,-0.010691642761230469,-0.0002722740173339844,-0.020620763301849365
1772740181540257500,6.672257568359375,-0.13947296142578125,0.02341938018798828,-0.09119495749473572
1772740181559029800,6.69102978515625,-0.02183055877685547,0.03078484535217285,-0.07522198557853699
1772740181577802000,6.709802001953125,-0.0020513534545898438,-0.03653526306152344,-0.0857212245464325
1772740181596574000,6.728573974609375,0.00684356689453125,-0.07151365280151367,-0.11137527227401733
1772740181615346200,6.74734619140625,-0.019693374633789062,-0.0480799674987793,-0.1294456124305725
1772740181634118400,6.766118408203125,-0.05986785888671875,-0.037070512771606445,-0.12660807371139526
1772740181652890400,6.784890380859375,-0.0022487640380859375,-0.005785703659057617,-0.06675931811332703
1772740181671662600,6.80366259765625,0.05554485321044922,0.058882713317871094,-0.0007191598415374756
1772740181690434800,6.822434814453125,0.0138702392578125,0.05491232872009277,0.01771456003189087
1772740181709206800,6.841206787109375,0.020868301391601562,0.04007697105407715,0.022371351718902588
1772740181727979000,6.85997900390625,-0.002696990966796875,0.01791524887084961,0.013929158449172974
1772740181746751200,6.878751220703125,-0.03336906433105469,0.03882598876953125,0.001085132360458374
1772740181765523200,6.897523193359375,-0.09599018096923828,0.04204249382019043,-0.0058116614818573
1772740181784295400,6.91629541015625,-0.08488655090332031,0.02349090576171875,0.015800267457962036
1772740181803067600,6.935067626953125,-0.029242515563964844,0.020141124725341797,0.0399169921875
1772740181821839600,6.953839599609375,-0.025763511657714844,0.005997657775878906,0.03193765878677368
1772740181840611800,6.97261181640625,-0.029898643493652344,-0.017346858978271484,0.018275469541549683
1772740181859384000,6.991384033203125,-0.06673336029052734,-0.02267622947692871,-0.004765927791595459
1772740181878156000,7.010156005859375,-0.04240989685058594,-0.025599002838134766,-0.01003420352935791
1772740181896928300,7.02892822265625,-0.07446002960205078,-0.009094953536987305,-0.02796652913093567
1772740181915700500,7.047700439453125,-0.087646484375,-0.020407438278198242,-0.044544100761413574
1772740181934472400,7.066472412109375,-0.06300544738769531,-0.019651174545288086,-0.0434226393699646
1772740181953244700,7.08524462890625,-0.05609130859375,-0.02000570297241211,-0.043955057859420776
1772740181972017000,7.104016845703125,-0.011851310729980469,-0.010242938995361328,-0.03458219766616821
1772740181990789000,7.1227890625,0.017078399658203125,-0.0172884464263916,-0.040371447801589966
1772740182009561000,7.14156103515625,0.034264564514160156,-0.016474246978759766,-0.025251299142837524
1772740182028333300,7.160333251953125,-0.013360977172851562,-0.004284381866455078,-0.022756487131118774
1772740182047105300,7.179105224609375,-0.031103134155273438,0.014158248901367188,-0.007751286029815674
1772740182065877500,7.19787744140625,-0.04874134063720703,0.04204678535461426,0.006838440895080566
1772740182084649700,7.216649658203125,-0.056632041931152344,0.03910064697265625,0.029754638671875
1772740182103421700,7.235421630859375,-0.06336212158203125,0.04587578773498535,0.03543803095817566
1772740182122194000,7.25419384765625,-0.05216503143310547,0.057374000549316406,0.047214001417160034
1772740182140966100,7.272966064453125,-0.1003122329711914,0.05378150939941406,0.031743526458740234
1772740182159738000,7.291738037109375,-0.044915199279785156,-0.011557817459106445,0.045399367809295654
1772740182178510300,7.31051025390625,0.015981674194335938,-0.042871713638305664,0.040113240480422974
1772740182197282600,7.329282470703125,-0.11052227020263672,-0.020141124725341797,-0.020761817693710327
1772740182216054800,7.3480546875,-0.12103557586669922,0.0345463752746582,-0.026482075452804565
1772740182234826800,7.36682666015625,0.00096893310546875,0.006170511245727539,-0.03137564659118652
1772740182253599000,7.385598876953125,0.04895305633544922,-0.06892704963684082,-0.049362123012542725
1772740182272371200,7.40437109375,-0.008998870849609375,-0.08954143524169922,-0.10145822167396545
1772740182291143200,7.42314306640625,-0.03642559051513672,-0.06518363952636719,-0.10990938544273376
1772740182309915400,7.441915283203125,-0.035984039306640625,-0.036571502685546875,-0.07385671138763428
1772740182328687400,7.460687255859375,-0.031327247619628906,0.023146629333496094,-0.03389981389045715
1772740182347459600,7.47945947265625,-0.038875579833984375,0.0631093978881836,-0.023312509059906006
1772740182366231800,7.498231689453125,-0.09863853454589844,0.036424875259399414,-0.03134790062904358
1772740182385003800,7.517003662109375,-0.046050071716308594,0.03255057334899902,-0.02189725637435913
1772740182403776000,7.53577587890625,-0.025915145874023438,0.0472719669342041,-0.013070017099380493
1772740182422548200,7.55454833984375,0.0067195892333984375,0.03917837142944336,0.0052533745765686035
1772740182441320400,7.573320556640625,-0.016183853149414062,0.03348374366760254,0.008342713117599487
1772740182460092400,7.592092529296875,0.06757450103759766,0.021027565002441406,0.033472150564193726
1772740182478864600,7.61086474609375,0.04405975341796875,0.021459102630615234,0.02032354474067688
1772740182497636900,7.629636962890625,-0.006623268127441406,0.0013871192932128906,0.017750918865203857
1772740182516408800,7.648408935546875,-0.030914306640625,-0.00004172325134277344,0.007588297128677368
1772740182535181000,7.66718115234375,0.00012874603271484375,0.013715267181396484,0.006279319524765015
1772740182553953300,7.685953369140625,-0.05377388000488281,0.006392717361450195,-0.011988639831542969
1772740182572725200,7.704725341796875,-0.12774658203125,0.011667728424072266,-0.04414889216423035
1772740182591497500,7.72349755859375,-0.08537673950195312,0.026823997497558594,-0.048525214195251465
1772740182610269400,7.74226953125,-0.03749275207519531,-0.007010221481323242,-0.04519909620285034
1772740182629041700,7.761041748046875,-0.03946495056152344,-0.01777482032775879,-0.04956701397895813
1772740182647814000,7.77981396484375,-0.01061248779296875,-0.02891373634338379,-0.04962736368179321
1772740182666586000,7.798586181640625,0.028207778930664062,-0.028508901596069336,-0.04344305396080017
1772740182685358000,7.817358154296875,0.023958206176757812,-0.027458906173706055,-0.03966474533081055
1772740182704130300,7.83613037109375,-0.00031566619873046875,-0.0248110294342041,-0.023585528135299683
1772740182722902500,7.854902587890625,-0.06329917907714844,0.0038902759552001953,-0.0004588663578033447
1772740182741674500,7.873674560546875,-0.06835460662841797,0.03017735481262207,0.01074892282485962
1772740182760446700,7.89244677734375,-0.05247688293457031,0.024824142456054688,0.02122342586517334
1772740182779219000,7.911218994140625,-0.0799875259399414,0.05707359313964844,0.013938456773757935
1772740182797991000,7.929990966796875,-0.17427825927734375,0.05450248718261719,0.005526900291442871
1772740182816763100,7.94876318359375,-0.12680530548095703,0.009704351425170898,0.034700870513916016
1772740182835535400,7.967535400390625,-0.03517341613769531,-0.012795209884643555,0.05616334080696106
1772740182854307300,7.986307373046875,-0.1040945053100586,0.004642963409423828,0.009814143180847168
1772740182873079600,8.00507958984375,-0.1600780487060547,0.05798912048339844,-0.02724003791809082
1772740182891851800,8.023851806640625,-0.030181884765625,0.08074665069580078,-0.017426490783691406
1772740182910623700,8.042623779296875,0.040617942810058594,0.009430885314941406,-0.03283408284187317
1772740182929396000,8.06139599609375,0.018087387084960938,0.0005693435668945312,-0.060022950172424316
1772740182948168200,8.080168212890625,0.014438629150390625,0.020914077758789062,-0.06850001215934753
1772740182966940200,8.098940185546875,0.05784893035888672,-0.004602909088134766,-0.04963381588459015
1772740182985712400,8.11771240234375,0.05953216552734375,0.004975318908691406,-0.03746508061885834
1772740183004484600,8.136484619140624,0.047598838806152344,0.034980058670043945,-0.030374765396118164
1772740183023256600,8.155256591796874,-0.027309417724609375,0.010882377624511719,-0.0352911651134491
1772740183042028800,8.17402880859375,-0.04693603515625,-0.014692068099975586,-0.04029721021652222
1772740183060801000,8.192801025390626,-0.0115203857421875,-0.02591395378112793,-0.02994072437286377
1772740183079573000,8.211572998046876,-0.06622314453125,-0.011870861053466797,-0.01173284649848938
1772740183098345200,8.23034521484375,-0.1046895980834961,0.014860868453979492,0.006876826286315918
1772740183117117400,8.249117431640625,-0.06805419921875,0.014455556869506836,0.03507941961288452
1772740183135889400,8.267889404296875,-0.09930133819580078,0.041919708251953125,0.03599146008491516
1772740183154661600,8.28666162109375,-0.12912750244140625,0.052213430404663086,0.02540290355682373
1772740183173433900,8.305433837890625,-0.12701797485351562,0.07093119621276855,0.014712989330291748
1772740183192205800,8.324205810546875,-0.0424041748046875,0.046138763427734375,0.020440995693206787
1772740183210978000,8.34297802734375,-0.022699356079101562,0.049538373947143555,0.002697885036468506
1772740183229750300,8.361750244140625,-0.08189868927001953,0.0327303409576416,-0.02972361445426941
1772740183248522500,8.3805224609375,-0.08319473266601562,0.021465063095092773,-0.047613680362701416
1772740183267294500,8.39929443359375,-0.042748451232910156,0.002318143844604492,-0.049053460359573364
1772740183286066700,8.418066650390625,0.02997303009033203,0.0013997554779052734,-0.03818359971046448
1772740183304839000,8.4368388671875,0.0036134719848632812,-0.019397258758544922,-0.0446343719959259
1772740183323611000,8.45561083984375,-0.023947715759277344,-0.00935983657836914,-0.020641297101974487
1772740183342383000,8.474383056640624,0.004689216613769531,0.06113576889038086,0.007124423980712891
1772740183361155000,8.493155029296876,-0.028072357177734375,0.06887602806091309,0.0070795416831970215
1772740183379927300,8.51192724609375,-0.03818511962890625,0.06403207778930664,0.015772998332977295
1772740183398699500,8.530699462890626,-0.07204151153564453,0.06156444549560547,0.009492218494415283
1772740183417471700,8.5494716796875,-0.011087417602539062,0.058142900466918945,0.02970123291015625
1772740183436243700,8.56824365234375,-0.050660133361816406,0.06631231307983398,0.006711900234222412
1772740183455016000,8.587015869140625,-0.04114246368408203,0.05091547966003418,-0.002757340669631958
1772740183473788200,8.6057880859375,-0.07933712005615234,0.04215717315673828,-0.02472701668739319
1772740183492560100,8.62456005859375,0.019964218139648438,-0.014672517776489258,0.008877933025360107
1772740183511332400,8.643332275390625,-0.00543212890625,-0.036492347717285156,0.01489439606666565
1772740183530104600,8.6621044921875,-0.1009817123413086,-0.04058408737182617,-0.028794318437576294
1772740183548876500,8.68087646484375,-0.07133293151855469,0.054737091064453125,-0.004984855651855469
1772740183567648800,8.699648681640625,-0.06799030303955078,0.08227205276489258,-0.003151535987854004
1772740183586421000,8.7184208984375,-0.07071685791015625,-0.03340888023376465,-0.03483694791793823
1772740183605193000,8.73719287109375,0.004939079284667969,-0.0735936164855957,-0.05675908923149109
1772740183623965200,8.755965087890624,-0.08602046966552734,-0.007153511047363281,-0.06642630696296692
1772740183642737400,8.7747373046875,-0.10228538513183594,-0.0017108917236328125,-0.039074599742889404
1772740183661509400,8.79350927734375,-0.031937599182128906,0.0326993465423584,0.011401861906051636
1772740183680281600,8.812281494140626,-0.1140594482421875,0.09526968002319336,0.011741995811462402
1772740183699053800,8.8310537109375,-0.11005783081054688,0.07536196708679199,0.017219871282577515
1772740183717825800,8.84982568359375,-0.03588581085205078,0.10654187202453613,0.004493743181228638
1772740183736598000,8.868597900390625,0.002773284912109375,0.028356075286865234,0.006318956613540649
1772740183755370200,8.887370361328125,0.01728343963623047,-0.024063825607299805,-0.011325925588607788
1772740183774142200,8.90614208984375,0.007596015930175781,0.0194549560546875,-0.013086080551147461
1772740183792914400,8.92491455078125,-0.0041217803955078125,0.033919572830200195,-0.01355832815170288
1772740183811686700,8.943686767578125,0.001941680908203125,0.0011601448059082031,-0.016139239072799683
1772740183830458600,8.962458740234375,-0.013944625854492188,-0.022918701171875,-0.02473992109298706
1772740183849230800,8.98123095703125,-0.03834342956542969,-0.02155756950378418,-0.03229176998138428
1772740183868003000,9.000003173828125,-0.03983592987060547,-0.033547401428222656,-0.022743195295333862
1772740183886775000,9.018775146484375,-0.14526653289794922,-0.0424807071685791,-0.036700546741485596
1772740183905547300,9.03754736328125,-0.15050411224365234,-0.05027198791503906,-0.056074872612953186
1772740183924319500,9.056319580078124,-0.00464630126953125,0.06671023368835449,-0.015019491314888
1772740183943091500,9.075091552734374,-0.04788494110107422,-0.02201676368713379,-0.010433018207550049
1772740183961863700,9.09386376953125,-0.017671585083007812,-0.06690716743469238,-0.04330255091190338
1772740183980636000,9.112635986328126,0.01474761962890625,-0.053975582122802734,-0.04059608280658722
1772740183999407900,9.131407958984376,0.07164478302001953,-0.022391796112060547,-0.021852150559425354
1772740184018180000,9.15018017578125,0.0424652099609375,-0.0015115737915039062,-0.02687421441078186
1772740184036952300,9.168952392578126,0.014042854309082031,-0.02558135986328125,-0.02970890700817108
1772740184055724300,9.187724365234375,0.04560661315917969,0.012256860733032227,-0.0005078166723251343
1772740184074496500,9.20649658203125,-0.0633840560913086,0.04283618927001953,-0.013072088360786438
1772740184093268700,9.225268798828125,-0.08345413208007812,0.024920940399169922,-0.008414626121520996
1772740184112040700,9.244040771484375,-0.08028793334960938,0.049910783767700195,0.006931141018867493
1772740184130813000,9.26281298828125,-0.12471961975097656,0.06874656677246094,0.016613200306892395
1772740184149585200,9.281585205078125,-0.0975656509399414,0.06328034400939941,0.03044097125530243
1772740184168357000,9.300357177734375,-0.0845327377319336,0.08721637725830078,0.04132315516471863
1772740184187129300,9.31912939453125,-0.11644935607910156,0.04280662536621094,0.044783368706703186
1772740184205901600,9.337901611328125,-0.16116046905517578,-0.014604330062866211,0.03629860281944275
1772740184224673800,9.356673828125,0.05951690673828125,-0.12465596199035645,0.032664552330970764
1772740184243445800,9.37544580078125,0.036704063415527344,-0.12298798561096191,-0.018625780940055847
1772740184262218000,9.394218017578124,-0.04908561706542969,-0.03485560417175293,-0.0367242693901062
1772740184280990200,9.412990234375,0.023035049438476562,-0.0292510986328125,-0.04708106815814972
1772740184299762200,9.43176220703125,0.05918598175048828,-0.06622600555419922,-0.06731654703617096
1772740184318534400,9.450534423828126,-0.047896385192871094,-0.09782910346984863,-0.11673775315284729
1772740184337306400,9.469306396484376,-0.0021657943725585938,-0.05165982246398926,-0.09285983443260193
1772740184356078600,9.48807861328125,0.0065937042236328125,0.025671958923339844,-0.025659069418907166
1772740184374850800,9.506850830078125,0.054785728454589844,0.01650214195251465,0.03797256946563721
1772740184393622800,9.525622802734375,-0.030831336975097656,0.07557511329650879,0.029804930090904236
1772740184412395000,9.54439501953125,-0.004837989807128906,0.10651850700378418,0.05553297698497772
1772740184431167200,9.563167236328125,0.10532569885253906,0.17572736740112305,0.08033637702465057
1772740184449939200,9.581939208984375,-0.08447837829589844,-0.0056171417236328125,-0.034328192472457886
1772740184468711400,9.60071142578125,0.1705789566040039,-0.13135957717895508,-0.03261658549308777
1772740184487483600,9.619483642578125,-0.08298969268798828,-0.07942461967468262,-0.13198605179786682
1772740184506256000,9.638255859375,0.019674301147460938,-0.10087394714355469,-0.0707101821899414
1772740184525027800,9.65702783203125,-0.022523880004882812,0.03180360794067383,-0.03706523776054382
1772740184543800000,9.675800048828124,0.0063915252685546875,0.016547203063964844,0.03722986578941345
1772740184562572300,9.694572265625,0.0656728744506836,0.059240102767944336,0.07226824760437012
1772740184581344300,9.71334423828125,-0.15239429473876953,0.07259702682495117,0.0299375057220459
1772740184600116500,9.732116455078126,-0.22934627532958984,-0.12448000907897949,-0.031312376260757446
1772740184618888700,9.750888671875,-0.23076629638671875,-0.08864212036132812,-0.01578947901725769
1772740184637660700,9.76966064453125,-0.23000812530517578,0.02717304229736328,-0.0842621922492981
1772740184656433000,9.788432861328126,-0.039669036865234375,-0.05144906044006348,-0.007925212383270264
1772740184675204900,9.807204833984375,0.05816173553466797,0.022764921188354492,0.016477882862091064
1772740184693977000,9.82597705078125,0.05011272430419922,0.0994260311126709,0.054137200117111206
1772740184712749300,9.844749267578125,-0.03934001922607422,0.1406083106994629,0.07306477427482605
1772740184731521500,9.863521484375,-0.1727733612060547,0.03386807441711426,0.09667006134986877
