time,seconds_elapsed,z,y,x
1772740175020625000,0.152625,0.01710372418165207,0.02076880633831024,0.021226942539215088
1772740175058169000,0.190169189453125,0.023823043331503868,-0.036039989441633224,0.03894151374697685
1772740175076941300,0.20894140625,0.014660334214568138,-0.04092676565051079,0.04016320779919624
1772740175095713500,0.227713623046875,0.013438640162348747,-0.05497625470161438,0.03558185324072838
1772740175114485500,0.246485595703125,0.012827792204916477,-0.049173206090927124,0.025502873584628105
1772740175133257700,0.2652578125,0.005497625097632408,-0.046729814261198044,0.024281177669763565
1772740175152030000,0.284030029296875,0.01038440316915512,-0.059710320085287094,0.04611896723508835
1772740175170802000,0.302802001953125,0.01832541823387146,-0.051922015845775604,0.04413371533155441
1772740175189574100,0.32157421875,0.006108472589403391,-0.017561858519911766,0.02244863659143448
1772740175208346400,0.340346435546875,-0.006108472589403391,-0.010231691412627697,0.0198525357991457
1772740175227118600,0.35911865234375,0.0006108472589403391,-0.008399149402976036,0.024128466844558716
1772740175245890600,0.377890625,0.007941014133393764,-0.01695101149380207,0.018783552572131157
1772740175264662800,0.396662841796875,0.015271181240677834,-0.03451287001371384,0.02092151902616024
1772740175283435000,0.41543505859375,0.01710372418165207,-0.03374931216239929,0.032069481909275055
1772740175302207000,0.43420703125,0.011606098152697086,0.0035123717971146107,0.0462716780602932
1772740175320979200,0.452979248046875,0.015271181240677834,-0.014202198944985867,0.0390942245721817
1772740175339751400,0.47175146484375,0.016492875292897224,-0.042759306728839874,0.007482878863811493
1772740175358523600,0.490523681640625,0.010995250195264816,-0.04993676394224167,-0.029626091942191124
1772740175377295600,0.509295654296875,0.0018325417768210173,-0.04428642615675926,-0.05619794875383377
1772740175396067800,0.52806787109375,-0.007941014133393764,-0.016645587980747223,-0.0791047215461731
1772740175414840000,0.546840087890625,-0.01954711228609085,-0.03649812191724777,-0.058335911482572556
1772740175433612000,0.565612060546875,-0.016492875292897224,-0.0841442123055458,-0.03268032893538475
1772740175452384300,0.58438427734375,-0.004275931045413017,-0.10369132459163666,-0.03787253051996231
1772740175471156500,0.603156494140625,-0.006108472589403391,-0.07314895838499069,-0.0719272643327713
1772740175489928700,0.6219287109375,-0.029320668429136276,-0.009009997360408306,-0.09529217332601547
1772740175508700700,0.64070068359375,-0.047646086663007736,0.025961007922887802,-0.07238540053367615
1772740175527473000,0.659472900390625,-0.045202698558568954,-0.004123218823224306,-0.016187451779842377
1772740175546244900,0.678244873046875,-0.042759306728839874,-0.023823043331503868,0.005344913341104984
1772740175565017000,0.69701708984375,-0.04886778071522713,0.032069481909275055,-0.04169032722711563
1772740175583789300,0.715789306640625,-0.04031591862440109,0.06704048812389374,-0.08994726091623306
1772740175602561500,0.7345615234375,-0.03542914241552353,0.02351761981844902,-0.07360709458589554
1772740175621333500,0.75333349609375,-0.037261683493852615,-0.012980503961443901,-0.0018325417768210173
1772740175640105700,0.772105712890625,-0.033596597611904144,-0.03298575058579445,0.04077405482530594
1772740175658878000,0.7908779296875,-0.02504473738372326,-0.020310672000050545,0.03802524134516716
1772740175677650000,0.80964990234375,-0.024433890357613564,0.006108472589403391,0.015271181240677834
1772740175696422100,0.828422119140625,-0.023823043331503868,0.005344913341104984,0.005955760832875967
1772740175715194400,0.8471943359375,-0.02076880633831024,-0.02244863659143448,0.01572931744158268
1772740175733966600,0.865966552734375,-0.01038440316915512,-0.03436015918850899,0.032069481909275055
1772740175752738600,0.884738525390625,-0.0006108472589403391,-0.017409147694706917,0.02748812735080719
1772740175780896800,0.912896728515625,0.008551862090826035,0.009009997360408306,0.0065666078589856625
1772740175799669000,0.9316689453125,0.014049487188458443,0,0.012216945178806782
1772740175818441200,0.950441162109375,0.020157959312200546,-0.021226942539215088,0.023212196305394173
1772740175837213400,0.96921337890625,0.02076880633831024,-0.02351761981844902,0.026877280324697495
1772740175855985400,0.9879853515625,0.013438640162348747,-0.012064233422279358,0.018630841746926308
1772740175874757600,1.006757568359375,0.012216945178806782,-0.016798298805952072,-0.004275931045413017
1772740175893529900,1.02552978515625,0.007330167107284069,-0.01710372418165207,-0.02764083817601204
1772740175912301800,1.0443017578125,-0.006108472589403391,0.006719320081174374,-0.026877280324697495
1772740175931074000,1.063073974609375,-0.01038440316915512,-0.007177455350756645,-0.013591351918876171
1772740175949846300,1.08184619140625,-0.0030542362947016954,-0.030389651656150818,-0.018783552572131157
1772740175968618500,1.100618408203125,-0.004275931045413017,-0.025197450071573257,-0.04062134400010109
1772740175987390500,1.119390380859375,-0.013438640162348747,-0.016645587980747223,-0.04016320779919624
1772740176006162700,1.13816259765625,-0.012827792204916477,-0.006719320081174374,-0.02107422985136509
1772740176024935000,1.156934814453125,0.0012216945178806782,-0.004428642801940441,0.007941014133393764
1772740176043707000,1.175706787109375,0.018936265259981155,-0.005955760832875967,0.01725643500685692
1772740176062479000,1.19447900390625,0.020157959312200546,-0.014049487188458443,0.006261184345930815
1772740176081251300,1.213251220703125,0.00916270911693573,-0.007482878863811493,0.0024433890357613564
1772740176100023300,1.232023193359375,0.012216945178806782,-0.008704573847353458,0.005497625097632408
1772740176118795500,1.25079541015625,0.023823043331503868,-0.0007635590736754239,0.0022906772792339325
1772740176137567700,1.269567626953125,0.015271181240677834,0.005955760832875967,0.009009997360408306
1772740176156340000,1.288340087890625,0.006719320081174374,0.0030542362947016954,0.01710372418165207
1772740176175112000,1.30711181640625,0.004275931045413017,-0.0006108472589403391,0.00916270911693573
1772740176193884200,1.32588427734375,0.0024433890357613564,-0.014202198944985867,-0.0030542362947016954
1772740176212656400,1.344656494140625,0,-0.010842538438737392,-0.01847812905907631
1772740176231428400,1.363428466796875,0,-0.009620844386518002,-0.015423892997205257
1772740176250200600,1.38220068359375,-0.0006108472589403391,-0.0050394898280501366,0.004886778071522713
1772740176268972800,1.400972900390625,0.0030542362947016954,-0.007788302376866341,0.017867282032966614
1772740176287745000,1.4197451171875,0.005497625097632408,-0.007177455350756645,0.02351761981844902
1772740176306517000,1.43851708984375,0.0018325417768210173,-0.0004581354442052543,0.01847812905907631
1772740176325289200,1.457289306640625,0.0006108472589403391,0.0022906772792339325,0.005955760832875967
1772740176344061400,1.4760615234375,0.006108472589403391,0.00030542362947016954,-0.00519220158457756
1772740176362833400,1.49483349609375,0.0030542362947016954,-0.001985253533348441,-0.001374406274408102
1772740176381605600,1.513605712890625,0,-0.012216945178806782,0.012369656935334206
1772740176400377900,1.5323779296875,0.007330167107284069,-0.0032069480512291193,0.0036650835536420345
1772740176419149800,1.55114990234375,0.008551862090826035,0.014965757727622986,-0.004734066314995289
1772740176437922000,1.569922119140625,0.004886778071522713,0.005955760832875967,0.004123218823224306
1772740176456694300,1.5886943359375,0.004886778071522713,-0.02367033064365387,0.014507622458040714
1772740176475466500,1.607466552734375,0.004275931045413017,-0.023975754156708717,0.0015271181473508477
1772740176494238500,1.626238525390625,0.004275931045413017,-0.001374406274408102,-0.028557108715176582
1772740176513010700,1.6450107421875,0.004886778071522713,0.009468132629990578,-0.0393996499478817
1772740176531783000,1.663782958984375,0.006719320081174374,0.0032069480512291193,-0.01252236869186163
1772740176550555000,1.682554931640625,0.008551862090826035,-0.023364907130599022,-0.005344913341104984
1772740176569327000,1.7013271484375,0.008551862090826035,-0.02641914412379265,-0.037414394319057465
1772740176588099300,1.720099365234375,0.007330167107284069,-0.019394399598240852,-0.05864133685827255
1772740176606871600,1.73887158203125,0.014660334214568138,0.002748812548816204,-0.04046862944960594
1772740176625643500,1.7576435546875,0.02748812735080719,0.002748812548816204,-0.00259610079228878
1772740176644415700,1.776415771484375,0.03542914241552353,0.001985253533348441,0.018936265259981155
1772740176663188000,1.79518798828125,0.04031591862440109,-0.009773556143045425,0.011147962883114815
1772740176681960000,1.8139599609375,0.037261683493852615,0.0016798300202935934,0.007330167107284069
1772740176700732200,1.832732177734375,0.023823043331503868,-0.0012216945178806782,0.01038440316915512
1772740176719504400,1.85150439453125,0.01954711228609085,-0.007941014133393764,0.008704573847353458
1772740176738276400,1.8702763671875,0.018936265259981155,-0.004886778071522713,0.007330167107284069
1772740176757048600,1.889048583984375,0.015271181240677834,0.00992626789957285,0.025655584409832954
1772740176775820800,1.90782080078125,0.007941014133393764,0.010537114925682545,0.02504473738372326
1772740176794593000,1.926593017578125,0.0030542362947016954,-0.0038177953101694584,0.006719320081174374
1772740176813365000,1.945364990234375,0.004886778071522713,0.0016798300202935934,-0.0007635590736754239
1772740176832137200,1.96413720703125,0.007330167107284069,-0.0018325417768210173,0.012216945178806782
1772740176850909400,1.982909423828125,0.012216945178806782,-0.007330167107284069,0.008704573847353458
1772740176869681400,2.001681396484375,0.010995250195264816,-0.009315420873463154,0
1772740176888453600,2.02045361328125,0.013438640162348747,-0.003970507066696882,-0.004428642801940441
1772740176907225900,2.039225830078125,0.020157959312200546,0.0032069480512291193,-0.011453386396169662
1772740176925998000,2.057998046875,0.022601349279284477,-0.0010689827613532543,-0.013133215717971325
1772740176944770000,2.07677001953125,0.021990500390529633,-0.003970507066696882,-0.011911521665751934
1772740176963542300,2.095542236328125,0.01832541823387146,-0.0050394898280501366,-0.001985253533348441
1772740176982314200,2.114314208984375,0.017714571207761765,-0.005650337319821119,0.004886778071522713
1772740177001086500,2.13308642578125,0.012216945178806782,0.0022906772792339325,-0.00015271181473508477
1772740177019858700,2.151858642578125,0.0024433890357613564,-0.00030542362947016954,-0.00259610079228878
1772740177038631000,2.170630859375,-0.006719320081174374,-0.0032069480512291193,-0.001374406274408102
1772740177057403000,2.18940283203125,-0.011606098152697086,-0.0068720318377017975,0.0006108472589403391
1772740177076175000,2.208175048828125,-0.015271181240677834,0.007177455350756645,0.004581354558467865
1772740177094947300,2.226947265625,-0.014049487188458443,0.004123218823224306,0.007177455350756645
1772740177113719300,2.24571923828125,-0.00916270911693573,-0.0030542362947016954,0.007330167107284069
1772740177132491500,2.264491455078125,-0.01038440316915512,0.0036650835536420345,0.010995250195264816
1772740177151263700,2.283263671875,-0.014049487188458443,0.023212196305394173,0.02351761981844902
1772740177170036000,2.302035888671875,-0.010995250195264816,-0.0010689827613532543,0.021532366052269936
1772740177188808000,2.320807861328125,-0.007330167107284069,-0.017867282032966614,-0.0029015245381742716
1772740177207580200,2.339580078125,-0.01710372418165207,-0.01817270554602146,-0.02092151902616024
1772740177226352400,2.358352294921875,-0.014049487188458443,-0.0018325417768210173,-0.021226942539215088
1772740177245124400,2.377124267578125,-0.0018325417768210173,0.0009162708884105086,-0.007024743594229221
1772740177263896600,2.395896484375,0.013438640162348747,-0.0050394898280501366,0.005497625097632408
1772740177282668800,2.414668701171875,0.023823043331503868,-0.005497625097632408,0.012980503961443901
1772740177301440800,2.433440673828125,0.021990500390529633,-0.007941014133393764,0.012369656935334206
1772740177320213000,2.452212890625,0.01710372418165207,-0.005803049076348543,-0.0012216945178806782
1772740177338985200,2.470985107421875,0.01588202826678753,0.008093725889921188,-0.013896775431931019
1772740177357757400,2.48975732421875,0.016492875292897224,0.014813045971095562,-0.015271181240677834
1772740177376529400,2.508529296875,0.01038440316915512,0.016187451779842377,-0.0010689827613532543
1772740177395301600,2.527301513671875,0.0030542362947016954,-0.0068720318377017975,0.005497625097632408
1772740177414073900,2.546073974609375,0.005497625097632408,-0.013744063675403595,-0.007941014133393764
1772740177432845800,2.564845703125,0.005497625097632408,-0.00519220158457756,-0.01175880990922451
1772740177451618000,2.5836181640625,0.007941014133393764,0.005803049076348543,-0.002748812548816204
1772740177470390300,2.602390380859375,0.00916270911693573,-0.008551862090826035,0.009315420873463154
1772740177489162500,2.62116259765625,0.012827792204916477,-0.006719320081174374,0.014202198944985867
1772740177507934500,2.6399345703125,0.015271181240677834,0.005497625097632408,0.014660334214568138
1772740177526706700,2.658706787109375,0.01038440316915512,0.0036650835536420345,0.010842538438737392
1772740177545479000,2.67747900390625,0.0036650835536420345,-0.00015271181473508477,0.0035123717971146107
1772740177564251000,2.6962509765625,-0.0006108472589403391,-0.00259610079228878,0.0029015245381742716
1772740177583023000,2.715023193359375,0.004275931045413017,0.0010689827613532543,-0.00015271181473508477
1772740177601795300,2.73379541015625,0.0012216945178806782,-0.00015271181473508477,0.005344913341104984
1772740177620567300,2.7525673828125,0,0.0030542362947016954,0.010842538438737392
1772740177639339500,2.771339599609375,0.004275931045413017,-0.0018325417768210173,0.012827792204916477
1772740177658111700,2.79011181640625,0.006108472589403391,0.006108472589403391,0.010231691412627697
1772740177676883700,2.8088837890625,0.005497625097632408,0.0024433890357613564,0.017714571207761765
1772740177695656000,2.827656005859375,0.006719320081174374,0.004734066314995289,0.00916270911693573
1772740177714428200,2.84642822265625,-0.0012216945178806782,0.0035123717971146107,0.0022906772792339325
1772740177733200100,2.8652001953125,-0.0036650835536420345,-0.0029015245381742716,-0.013744063675403595
1772740177751972400,2.883972412109375,-0.0036650835536420345,0.0068720318377017975,-0.01695101149380207
1772740177770744600,2.90274462890625,0.0012216945178806782,0.011300674639642239,-0.0035123717971146107
1772740177789516800,2.921516845703125,0.0030542362947016954,0.0018325417768210173,0.01038440316915512
1772740177808288800,2.940288818359375,-0.009773556143045425,-0.02748812735080719,0.005955760832875967
1772740177827061000,2.95906103515625,-0.022601349279284477,-0.024281177669763565,-0.016340164467692375
1772740177845833200,2.977833251953125,-0.01954711228609085,-0.012675080448389053,-0.021532366052269936
1772740177864605200,2.996605224609375,-0.018936265259981155,0.00015271181473508477,-0.01252236869186163
1772740177883377400,3.01537744140625,-0.018936265259981155,-0.008246437646448612,-0.0036650835536420345
1772740177902149600,3.034149658203125,-0.008551862090826035,-0.01954711228609085,0.007024743594229221
1772740177920921900,3.052921875,0.012216945178806782,-0.007482878863811493,0.0006108472589403391
1772740177939693800,3.07169384765625,0.006108472589403391,-0.0015271181473508477,-0.007024743594229221
1772740177958466000,3.090466064453125,-0.0012216945178806782,-0.006413896102458239,-0.006261184345930815
1772740177977238300,3.10923828125,0.0036650835536420345,-0.0032069480512291193,0.0018325417768210173
1772740177996010200,3.12801025390625,0.014049487188458443,0.005955760832875967,0.007177455350756645
1772740178014782500,3.146782470703125,0.017714571207761765,-0.0009162708884105086,-0.007024743594229221
1772740178033554700,3.1655546875,0.012827792204916477,-0.01695101149380207,-0.019088976085186005
1772740178052326700,3.18432666015625,0.00916270911693573,-0.021226942539215088,-0.017714571207761765
1772740178071099000,3.203098876953125,0.006108472589403391,-0.013133215717971325,-0.013591351918876171
1772740178089871000,3.22187109375,-0.0006108472589403391,-0.011300674639642239,-0.00992626789957285
1772740178108643300,3.240643310546875,-0.006719320081174374,-0.015576604753732681,-0.01038440316915512
1772740178127415300,3.259415283203125,-0.007941014133393764,-0.009009997360408306,-0.016645587980747223
1772740178146187500,3.2781875,-0.012216945178806782,-0.0018325417768210173,-0.024281177669763565
1772740178164959700,3.296959716796875,-0.014049487188458443,0.0007635590736754239,-0.018783552572131157
1772740178183731700,3.315731689453125,-0.014660334214568138,-0.013133215717971325,-0.004275931045413017
1772740178202504000,3.33450390625,-0.00916270911693573,-0.00992626789957285,0.0006108472589403391
1772740178221276200,3.353276123046875,-0.004886778071522713,-0.011147962883114815,-0.0006108472589403391
1772740178240048000,3.372048095703125,0.004275931045413017,0.0038177953101694584,-0.011300674639642239
1772740178258820400,3.3908203125,0.013438640162348747,0.006413896102458239,-0.0009162708884105086
1772740178277592600,3.409592529296875,0.01954711228609085,0.009620844386518002,0.007024743594229221
1772740178296364500,3.428364501953125,0.01954711228609085,0.007941014133393764,0.010842538438737392
1772740178315136800,3.44713671875,0.022601349279284477,0.0024433890357613564,0.009773556143045425
1772740178333909000,3.465908935546875,0.021379653364419937,0.010842538438737392,0.004581354558467865
1772740178352681200,3.48468115234375,0.014660334214568138,0.019241688773036003,0.00259610079228878
1772740178371453200,3.503453125,0.014049487188458443,0.004581354558467865,-0.004581354558467865
1772740178390225400,3.522225341796875,0.007330167107284069,-0.0004581354442052543,-0.011911521665751934
1772740178408997600,3.54099755859375,-0.006108472589403391,0.01847812905907631,-0.009773556143045425
1772740178427769600,3.55976953125,-0.00916270911693573,0.010842538438737392,-0.025808297097682953
1772740178446541800,3.578541748046875,-0.011606098152697086,0.021379653364419937,-0.055587101727724075
1772740178465314000,3.59731396484375,-0.013438640162348747,0.04504998400807381,-0.05665608495473862
1772740178484086000,3.6160859375,-0.007330167107284069,0.02870982140302658,-0.016798298805952072
1772740178502858200,3.634858154296875,-0.0030542362947016954,0.007482878863811493,0.028251685202121735
1772740178521630500,3.65363037109375,0.006719320081174374,0.008399149402976036,0.046729814261198044
1772740178540402700,3.672402587890625,0.007330167107284069,0.012980503961443901,0.029320668429136276
1772740178559174700,3.691174560546875,0.0024433890357613564,0.01572931744158268,0.0038177953101694584
1772740178577947000,3.70994677734375,-0.01038440316915512,0.010689826682209969,0.00030542362947016954
1772740178596719000,3.728718994140625,-0.012216945178806782,0.00916270911693573,0.016340164467692375
1772740178615491000,3.747490966796875,-0.007330167107284069,-0.00030542362947016954,0.029626091942191124
1772740178634263300,3.76626318359375,0,-0.0004581354442052543,0.029626091942191124
1772740178653035500,3.785035400390625,0.0030542362947016954,0.0029015245381742716,0.004734066314995289
1772740178671807700,3.803807861328125,0.0030542362947016954,0.00030542362947016954,-0.009468132629990578
1772740178690579700,3.822579833984375,0.006108472589403391,-0.004581354558467865,-0.0038177953101694584
1772740178709352000,3.84135205078125,0.007941014133393764,-0.0038177953101694584,-0.00015271181473508477
1772740178728124200,3.860124267578125,0.006108472589403391,-0.009315420873463154,-0.0018325417768210173
1772740178746896100,3.878896240234375,0.006719320081174374,-0.010537114925682545,-0.0012216945178806782
1772740178765668400,3.89766845703125,0.0036650835536420345,-0.01175880990922451,-0.0006108472589403391
1772740178784440600,3.916440673828125,0.0018325417768210173,-0.001985253533348441,-0.00015271181473508477
1772740178803212500,3.935212646484375,-0.0030542362947016954,0.0016798300202935934,0.0004581354442052543
1772740178821984800,3.95398486328125,-0.008551862090826035,-0.0007635590736754239,0.007941014133393764
1772740178840757000,3.972757080078125,-0.012216945178806782,-0.014507622458040714,0.016187451779842377
1772740178859529200,3.991529296875,-0.01038440316915512,-0.008704573847353458,0.0032069480512291193
1772740178878301200,4.01030126953125,-0.0006108472589403391,0.01038440316915512,-0.01954711228609085
1772740178897073400,4.029073486328125,-0.0006108472589403391,0.004428642801940441,-0.017561858519911766
1772740178915845600,4.047845703125,-0.0012216945178806782,-0.001985253533348441,0.0022906772792339325
1772740178934617600,4.06661767578125,0.004886778071522713,-0.0035123717971146107,0.017867282032966614
1772740178953389800,4.085389892578125,0.011606098152697086,-0.009009997360408306,0.024128466844558716
1772740178972162000,4.104162109375,0.017714571207761765,-0.00259610079228878,0.007330167107284069
1772740178990934000,4.12293408203125,0.018936265259981155,-0.0022906772792339325,-0.013744063675403595
1772740179009706200,4.141706298828125,0.020157959312200546,-0.00519220158457756,-0.008093725889921188
1772740179028478500,4.160478515625,0.022601349279284477,0.006108472589403391,0.012675080448389053
1772740179047250400,4.17925048828125,0.014660334214568138,0,0.013438640162348747
1772740179066022700,4.198022705078125,0.0018325417768210173,-0.02473931387066841,-0.009620844386518002
1772740179084795000,4.216794921875,-0.006108472589403391,-0.015423892997205257,-0.0393996499478817
1772740179103566800,4.23556689453125,-0.0012216945178806782,-0.007024743594229221,-0.04092676565051079
1772740179122339000,4.254339111328125,0,-0.020157959312200546,-0.02641914412379265
1772740179141111300,4.273111328125,0,-0.01710372418165207,-0.028251685202121735
1772740179159883500,4.291883544921875,0,0.009315420873463154,-0.046729814261198044
1772740179178655500,4.310655517578125,-0.015271181240677834,-0.0065666078589856625,-0.049020491540431976
1772740179197427700,4.329427734375,-0.02504473738372326,-0.04504998400807381,-0.024128466844558716
1772740179216200000,4.348199951171875,-0.02076880633831024,-0.03558185324072838,-0.006413896102458239
1772740179234972000,4.366971923828125,-0.007941014133393764,-0.0050394898280501366,0.0036650835536420345
1772740179253744000,4.385744140625,0.004886778071522713,0.027793550863862038,-0.00259610079228878
1772740179272516400,4.404516357421875,0.0030542362947016954,0.01252236869186163,-0.0016798300202935934
1772740179291288300,4.423288330078125,-0.0012216945178806782,-0.0050394898280501366,-0.0012216945178806782
1772740179310060500,4.442060546875,-0.0018325417768210173,-0.0038177953101694584,0.0006108472589403391
1772740179328832800,4.460832763671875,-0.0018325417768210173,0.013285927474498749,0.007635590620338917
1772740179347605000,4.47960498046875,0.0030542362947016954,0.013591351918876171,0.021837789565324783
1772740179366377000,4.498376953125,0.008551862090826035,0.016645587980747223,0.021837789565324783
1772740179385149200,4.517149169921875,0.006108472589403391,0.012216945178806782,0.014507622458040714
1772740179403921400,4.53592138671875,-0.0018325417768210173,0.007177455350756645,0.007177455350756645
1772740179422693400,4.554693359375,-0.00916270911693573,0.008246437646448612,-0.002748812548816204
1772740179441465600,4.573465576171875,-0.014049487188458443,0.019088976085186005,-0.014049487188458443
1772740179460237600,4.592237548828125,-0.0036650835536420345,0.010842538438737392,-0.028251685202121735
1772740179479009800,4.611009765625,-0.0018325417768210173,-0.0030542362947016954,-0.02489202655851841
1772740179497782000,4.629781982421875,-0.012216945178806782,-0.004734066314995289,-0.017409147694706917
1772740179516554200,4.64855419921875,-0.025655584409832954,0.014507622458040714,-0.024586603045463562
1772740179535326200,4.667326171875,-0.00916270911693573,0.030542362481355667,-0.05268557742238045
1772740179554098400,4.686098388671875,-0.006108472589403391,0.012369656935334206,-0.051769305020570755
1772740179572870700,4.70487060546875,-0.025655584409832954,-0.013285927474498749,-0.013591351918876171
1772740179591642600,4.723642578125,-0.037261683493852615,-0.01817270554602146,0.01817270554602146
1772740179610414800,4.742414794921875,-0.031153209507465363,-0.0029015245381742716,0.017867282032966614
1772740179629187000,4.76118701171875,-0.02626643143594265,-0.006413896102458239,-0.008704573847353458
1772740179647959000,4.779958984375,-0.016492875292897224,0.01038440316915512,-0.01954711228609085
1772740179666731300,4.798731201171875,-0.015271181240677834,0.007482878863811493,-0.01511846948415041
1772740179685503500,4.81750341796875,-0.01710372418165207,-0.007024743594229221,-0.012980503961443901
1772740179704275700,4.836275634765625,-0.015271181240677834,-0.006108472589403391,-0.02107422985136509
1772740179723047700,4.855047607421875,-0.0024433890357613564,0.031153209507465363,-0.0198525357991457
1772740179741820000,4.87381982421875,-0.0024433890357613564,0.0325276181101799,-0.00015271181473508477
1772740179760592100,4.892592041015625,0.01832541823387146,0.009315420873463154,0.022601349279284477
1772740179779364000,4.911364013671875,0.023212196305394173,-0.013591351918876171,0.03787253051996231
1772740179798136300,4.93013623046875,0.021990500390529633,-0.009620844386518002,0.02107422985136509
1772740179816908500,4.948908447265625,0.010995250195264816,0.0050394898280501366,-0.012675080448389053
1772740179835680500,4.967680419921875,0.0012216945178806782,0.00992626789957285,-0.012675080448389053
1772740179854452700,4.98645263671875,-0.0030542362947016954,0.012064233422279358,0.012675080448389053
1772740179873225000,5.005224853515625,-0.0006108472589403391,0.0068720318377017975,0.021990500390529633
1772740179891997000,5.023996826171875,0.004886778071522713,-0.0038177953101694584,0.00916270911693573
1772740179910769200,5.04276904296875,0.004275931045413017,-0.007788302376866341,-0.015423892997205257
1772740179929541400,5.061541259765625,0.004886778071522713,0.001374406274408102,-0.01695101149380207
1772740179948313300,5.080313232421875,-0.0012216945178806782,0.008857285603880882,0.0009162708884105086
1772740179967085600,5.09908544921875,0.004886778071522713,0.010231691412627697,0.007788302376866341
1772740179985857800,5.11785791015625,0.004886778071522713,0.025961007922887802,0.0006108472589403391
1772740180004629800,5.136629638671875,0.007330167107284069,0.03833066672086716,0.007788302376866341
1772740180023402000,5.155402099609375,0.004886778071522713,0.02489202655851841,0.0068720318377017975
1772740180042174200,5.17417431640625,0.004886778071522713,0.009620844386518002,0.00519220158457756
1772740180060946200,5.1929462890625,0.007330167107284069,0.01252236869186163,-0.0021379655227065086
1772740180079718400,5.211718505859375,0.006719320081174374,0.023975754156708717,-0.011147962883114815
1772740180098490600,5.23049072265625,0.0018325417768210173,0.02641914412379265,-0.004275931045413017
1772740180117262600,5.2492626953125,0.004886778071522713,0.02107422985136509,0.001374406274408102
1772740180136034800,5.268034912109375,0.009773556143045425,0.007788302376866341,0.005955760832875967
1772740180154807000,5.28680712890625,0.004886778071522713,0.013896775431931019,0.003970507066696882
1772740180173579300,5.305579345703125,-0.0024433890357613564,0.012675080448389053,0.002748812548816204
1772740180192351200,5.324351318359375,0.0006108472589403391,0.008399149402976036,0.003359660040587187
1772740180211123500,5.34312353515625,0,0.013896775431931019,0.007635590620338917
1772740180229895700,5.361895751953125,-0.004886778071522713,0.006719320081174374,0.010231691412627697
1772740180248667600,5.380667724609375,-0.004275931045413017,-0.010537114925682545,0.0024433890357613564
1772740180267439900,5.39943994140625,-0.0006108472589403391,0.0010689827613532543,0.007177455350756645
1772740180286211800,5.4182119140625,-0.0018325417768210173,0.012369656935334206,0.021990500390529633
1772740180304984000,5.436984130859375,-0.006108472589403391,-0.014813045971095562,0.00259610079228878
1772740180323756300,5.45575634765625,-0.014049487188458443,-0.01954711228609085,-0.028251685202121735
1772740180342528500,5.474528564453125,-0.016492875292897224,0.0029015245381742716,-0.03298575058579445
1772740180361300500,5.493300537109375,-0.009773556143045425,0.010537114925682545,-0.010231691412627697
1772740180380072700,5.51207275390625,0.0006108472589403391,-0.0030542362947016954,0.01725643500685692
1772740180398845000,5.530844970703125,0.006719320081174374,-0.020005248486995697,0.018783552572131157
1772740180417617000,5.549616943359375,0.004886778071522713,-0.01710372418165207,0.007024743594229221
1772740180436389000,5.56838916015625,-0.0018325417768210173,-0.007024743594229221,-0.008704573847353458
1772740180455161300,5.587161376953125,-0.007330167107284069,-0.0021379655227065086,-0.005650337319821119
1772740180473933300,5.605933349609375,-0.00916270911693573,0.0004581354442052543,0.0035123717971146107
1772740180492705500,5.62470556640625,-0.009773556143045425,0.0012216945178806782,0.014660334214568138
1772740180511477800,5.643477783203125,-0.0036650835536420345,0.0012216945178806782,0.010995250195264816
1772740180530249700,5.662249755859375,-0.0012216945178806782,0.0004581354442052543,0.0016798300202935934
1772740180549022000,5.68102197265625,-0.0006108472589403391,-0.001985253533348441,0.0024433890357613564
1772740180567794200,5.699794189453125,0.0006108472589403391,-0.0036650835536420345,0.01725643500685692
1772740180586566100,5.718566162109375,0.004275931045413017,-0.00519220158457756,0.026571854948997498
1772740180605338400,5.73733837890625,0.007941014133393764,-0.007330167107284069,0.015423892997205257
1772740180624110600,5.756110595703125,0.0024433890357613564,0.005344913341104984,0.007788302376866341
1772740180642882600,5.774882568359375,-0.0030542362947016954,0.013744063675403595,-0.0010689827613532543
1772740180661654800,5.79365478515625,0.0018325417768210173,0.003359660040587187,-0.004581354558467865
1772740180680427000,5.812427001953125,0.004886778071522713,0.010537114925682545,-0.009009997360408306
1772740180699199000,5.831198974609375,0.0006108472589403391,0.01695101149380207,-0.03023693896830082
1772740180717971200,5.84997119140625,0.0036650835536420345,0.005344913341104984,-0.0331384651362896
1772740180736743400,5.868743408203125,0.0036650835536420345,0.0024433890357613564,-0.020005248486995697
1772740180755515400,5.887515380859375,-0.0012216945178806782,-0.00015271181473508477,0.005497625097632408
1772740180774287600,5.90628759765625,0.0018325417768210173,0.0022906772792339325,0.009773556143045425
1772740180793059800,5.925059814453125,0.004275931045413017,0.009468132629990578,-0.005955760832875967
1772740180811831800,5.943831787109375,0.0012216945178806782,0.01725643500685692,-0.014049487188458443
1772740180830604000,5.96260400390625,-0.007941014133393764,0.038483377546072006,-0.010078979656100273
1772740180849376300,5.981376220703125,-0.0006108472589403391,0.028098974376916885,-0.018630841746926308
1772740180868148200,6.000148193359375,-0.0006108472589403391,-0.002748812548816204,-0.0038177953101694584
1772740180886920400,6.01892041015625,-0.004275931045413017,-0.008399149402976036,0.017867282032966614
1772740180905692700,6.037692626953125,-0.0024433890357613564,0.008704573847353458,0.02748812735080719
1772740180924464600,6.056464599609375,-0.0024433890357613564,-0.017867282032966614,0.001374406274408102
1772740180943236900,6.07523681640625,-0.009773556143045425,-0.021379653364419937,-0.030695075169205666
1772740180962009000,6.094009033203125,-0.011606098152697086,-0.008093725889921188,-0.03771981969475746
1772740180980781000,6.112781005859375,-0.007330167107284069,0.011606098152697086,-0.018936265259981155
1772740180999553300,6.13155322265625,-0.0012216945178806782,-0.01588202826678753,0.010689826682209969
1772740181018325500,6.150325439453125,0.007941014133393764,-0.014507622458040714,0.020616095513105392
1772740181037097500,6.169097412109375,0.007941014133393764,0.0015271181473508477,-0.0032069480512291193
1772740181055869700,6.18786962890625,0.0006108472589403391,0.021226942539215088,-0.026571854948997498
1772740181074642000,6.206641845703125,-0.00916270911693573,0.012216945178806782,-0.024433890357613564
1772740181093414000,6.225413818359375,-0.004275931045413017,0.013133215717971325,-0.0004581354442052543
1772740181112186000,6.24418603515625,0.0030542362947016954,0.012980503961443901,0.024433890357613564
1772740181130958300,6.262958251953125,0.004275931045413017,0.0018325417768210173,0.017714571207761765
1772740181149730300,6.281730224609375,-0.0006108472589403391,0.00015271181473508477,-0.010078979656100273
1772740181168502500,6.30050244140625,-0.004886778071522713,0.016492875292897224,-0.023364907130599022
1772740181187274800,6.319274658203125,-0.0036650835536420345,0.015576604753732681,-0.0029015245381742716
1772740181206046700,6.338046630859375,-0.0030542362947016954,-0.004581354558467865,0.03527642786502838
1772740181224819000,6.35681884765625,-0.0036650835536420345,-0.009773556143045425,0.04825693368911743
1772740181243591200,6.375591064453125,0.0030542362947016954,0.001985253533348441,0.022754060104489326
1772740181262363100,6.394363037109375,0.0030542362947016954,0.008704573847353458,-0.007177455350756645
1772740181281135400,6.41313525390625,-0.006108472589403391,0.0009162708884105086,-0.009468132629990578
1772740181299907600,6.431907470703125,-0.007941014133393764,-0.010537114925682545,0.0012216945178806782
1772740181318679600,6.450679443359375,0.0018325417768210173,-0.015423892997205257,-0.0036650835536420345
1772740181337451800,6.46945166015625,0.007330167107284069,-0.011453386396169662,-0.013591351918876171
1772740181356224000,6.48822412109375,0,-0.0035123717971146107,-0.018019994720816612
1772740181374996000,6.506995849609375,0,-0.007330167107284069,-0.024128466844558716
1772740181393768200,6.525768310546875,0,-0.020616095513105392,-0.018936265259981155
1772740181412540400,6.54454052734375,-0.0036650835536420345,-0.02473931387066841,-0.013285927474498749
1772740181431312400,6.5633125,-0.0030542362947016954,-0.020310672000050545,-0.0022906772792339325
1772740181450084600,6.582084716796875,0.0036650835536420345,-0.014660334214568138,0.008093725889921188
1772740181468856800,6.60085693359375,0.0006108472589403391,-0.014660334214568138,0.011911521665751934
1772740181487629000,6.619629150390625,-0.0012216945178806782,-0.010995250195264816,0.012369656935334206
1772740181506401000,6.638401123046875,-0.004275931045413017,-0.01847812905907631,0.00259610079228878
1772740181525173200,6.65717333984375,-0.007941014133393764,0.004734066314995289,0.009620844386518002
1772740181543945500,6.675945556640625,-0.007941014133393764,-0.012216945178806782,0.007482878863811493
1772740181562717400,6.694717529296875,-0.007330167107284069,-0.018936265259981155,-0.023975754156708717
1772740181581489700,6.71348974609375,-0.014049487188458443,-0.009620844386518002,-0.021685076877474785
1772740181600261600,6.73226171875,-0.0012216945178806782,0.0007635590736754239,-0.013133215717971325
1772740181619033900,6.751033935546875,0.006719320081174374,0.009468132629990578,-0.0009162708884105086
1772740181637806000,6.76980615234375,0.014049487188458443,-0.005497625097632408,0.014813045971095562
1772740181656578000,6.788578125,0.029320668429136276,-0.010537114925682545,0
1772740181675350300,6.807350341796875,0.02870982140302658,0.006413896102458239,-0.006413896102458239
1772740181694122500,6.82612255859375,0.015271181240677834,0.005955760832875967,0.007177455350756645
1772740181712894500,6.84489453125,0.01038440316915512,0.0024433890357613564,0.01832541823387146
1772740181731666700,6.863666748046875,0.007330167107284069,0.006413896102458239,0.02886253222823143
1772740181750439000,6.88243896484375,0.01038440316915512,0.006719320081174374,0.017714571207761765
1772740181769211100,6.901211181640625,0.01038440316915512,0.0016798300202935934,0.004123218823224306
1772740181787983000,6.919983154296875,0.011606098152697086,-0.014049487188458443,0.005650337319821119
1772740181806755300,6.93875537109375,0.007330167107284069,-0.008399149402976036,0.017867282032966614
1772740181825527600,6.957527587890625,0,-0.010689826682209969,0.025961007922887802
1772740181844299500,6.976299560546875,0.0030542362947016954,-0.0018325417768210173,0.010995250195264816
1772740181863071700,6.99507177734375,0.004275931045413017,-0.009773556143045425,0.008093725889921188
1772740181881843700,7.01384375,0.006108472589403391,-0.006719320081174374,0.008704573847353458
1772740181900616000,7.032615966796875,0.004886778071522713,-0.0032069480512291193,0.005497625097632408
1772740181919388200,7.05138818359375,0.006108472589403391,-0.0068720318377017975,-0.0018325417768210173
1772740181938160000,7.07016015625,0.006719320081174374,-0.005955760832875967,-0.01252236869186163
1772740181956932400,7.088932373046875,0.00916270911693573,-0.009315420873463154,-0.0018325417768210173
1772740181975704600,7.10770458984375,0.01038440316915512,-0.012980503961443901,0.00259610079228878
1772740181994476800,7.126476806640625,0.008551862090826035,-0.01038440316915512,0.007482878863811493
1772740182013248800,7.145248779296875,0.01038440316915512,-0.0036650835536420345,0.009773556143045425
1772740182032021000,7.16402099609375,0.012827792204916477,0.004734066314995289,0.004123218823224306
1772740182050793200,7.182793212890625,0.012827792204916477,0.0022906772792339325,0.004123218823224306
1772740182069565200,7.201565185546875,0.006108472589403391,-0.001374406274408102,0.007941014133393764
1772740182088337400,7.22033740234375,0.0036650835536420345,-0.004275931045413017,0.01038440316915512
1772740182107109600,7.239109619140625,0.004886778071522713,-0.004275931045413017,0.01038440316915512
1772740182125881600,7.257881591796875,-0.0012216945178806782,0.0029015245381742716,0.0065666078589856625
1772740182144653800,7.27665380859375,-0.007941014133393764,-0.006413896102458239,-0.0068720318377017975
1772740182163426000,7.295426025390625,-0.010995250195264816,-0.02107422985136509,-0.014660334214568138
1772740182182198000,7.314197998046875,-0.006108472589403391,-0.0038177953101694584,0.0010689827613532543
1772740182200970200,7.33297021484375,-0.0012216945178806782,-0.005955760832875967,0.02229592576622963
1772740182219742500,7.351742431640625,-0.004886778071522713,-0.023975754156708717,-0.0015271181473508477
1772740182238514400,7.370514404296875,-0.015271181240677834,-0.01954711228609085,-0.0325276181101799
1772740182257286700,7.38928662109375,-0.010995250195264816,0.004275931045413017,-0.025655584409832954
1772740182276059000,7.408058837890625,0.0012216945178806782,-0.002748812548816204,-0.0038177953101694584
1772740182294830800,7.426830810546875,0.013438640162348747,-0.011453386396169662,0.014202198944985867
1772740182313603000,7.44560302734375,0.024433890357613564,-0.010995250195264816,0.008704573847353458
1772740182332375300,7.464375244140625,0.024433890357613564,-0.0015271181473508477,-0.0068720318377017975
1772740182351147300,7.483147216796875,0.01710372418165207,0.011147962883114815,-0.009620844386518002
1772740182369919500,7.50191943359375,0.009773556143045425,-0.0015271181473508477,-0.004428642801940441
1772740182388691700,7.520691650390625,0.010995250195264816,-0.013591351918876171,-0.0036650835536420345
1772740182407463700,7.539463623046875,0.008551862090826035,-0.006261184345930815,0.0012216945178806782
1772740182426236000,7.55823583984375,0.008551862090826035,-0.001985253533348441,-0.001374406274408102
1772740182445008100,7.577008056640625,0.006108472589403391,-0.01175880990922451,-0.0030542362947016954
1772740182463780000,7.595780029296875,0.006108472589403391,-0.0032069480512291193,0.0016798300202935934
1772740182482552300,7.61455224609375,0.0024433890357613564,0.0024433890357613564,0.011606098152697086
1772740182501324500,7.633324462890625,0.004275931045413017,-0.004123218823224306,0.017867282032966614
1772740182520096500,7.652096435546875,0.005497625097632408,-0.010842538438737392,0.020463382825255394
1772740182538868700,7.67086865234375,-0.0006108472589403391,-0.0016798300202935934,0.025808297097682953
1772740182557641000,7.689640869140625,-0.0036650835536420345,0.011147962883114815,0.022601349279284477
1772740182576413000,7.708412841796875,-0.0012216945178806782,-0.0018325417768210173,0.01588202826678753
1772740182595185200,7.72718505859375,-0.0036650835536420345,-0.0032069480512291193,0.006719320081174374
1772740182613957400,7.745957275390625,-0.005497625097632408,0.007635590620338917,-0.008399149402976036
1772740182632729300,7.764729248046875,-0.0018325417768210173,0.001985253533348441,-0.014507622458040714
1772740182651501600,7.78350146484375,-0.0018325417768210173,-0.001374406274408102,0.0012216945178806782
1772740182670273800,7.802273681640625,-0.0036650835536420345,0.0018325417768210173,0.012827792204916477
1772740182689045800,7.821045654296875,0.0018325417768210173,0.009773556143045425,0.014507622458040714
1772740182707818000,7.83981787109375,0.007330167107284069,0.020157959312200546,0.01435491070151329
1772740182726590200,7.858590087890625,0.00916270911693573,0.011606098152697086,0.014507622458040714
1772740182745362200,7.877362060546875,0.0036650835536420345,-0.0022906772792339325,0.02214321307837963
1772740182764134400,7.896134521484375,0.0018325417768210173,0.0007635590736754239,0.02641914412379265
1772740182782906600,7.91490673828125,-0.0006108472589403391,0.013438640162348747,0.014507622458040714
1772740182801678600,7.9336787109375,-0.0036650835536420345,0.0004581354442052543,0.0010689827613532543
1772740182820450800,7.952450927734375,-0.004886778071522713,-0.019241688773036003,-0.010995250195264816
1772740182839223000,7.97122314453125,-0.004886778071522713,-0.006413896102458239,-0.007482878863811493
1772740182857995300,7.989995361328125,-0.0036650835536420345,-0.004886778071522713,0.017867282032966614
1772740182876767200,8.008767333984375,-0.006108472589403391,-0.029778804630041122,0.012827792204916477
1772740182895539500,8.02753955078125,-0.014660334214568138,-0.0328330397605896,-0.017561858519911766
1772740182914311400,8.0463115234375,-0.010995250195264816,-0.012827792204916477,-0.03145863488316536
1772740182933083600,8.065083740234375,0.0012216945178806782,-0.007177455350756645,-0.015423892997205257
1772740182951855900,8.08385595703125,0.0012216945178806782,-0.014202198944985867,0.0032069480512291193
1772740182970627800,8.1026279296875,0.0036650835536420345,-0.010231691412627697,0.014813045971095562
1772740182989400000,8.121400146484374,0.007941014133393764,-0.0006108472589403391,0.012827792204916477
1772740183008172300,8.14017236328125,0.004886778071522713,0.01572931744158268,0.003970507066696882
1772740183026944300,8.1589443359375,-0.0012216945178806782,0.01572931744158268,0.0050394898280501366
1772740183045716500,8.177716552734376,0,0.005955760832875967,0.008399149402976036
1772740183064488700,8.19648876953125,0.0024433890357613564,0.013438640162348747,0.011911521665751934
1772740183083261000,8.215260986328126,0.007330167107284069,0.017561858519911766,0.0068720318377017975
1772740183102033000,8.234032958984375,0.006108472589403391,0.007788302376866341,0.004581354558467865
1772740183120805000,8.25280517578125,0.005497625097632408,0.005955760832875967,0.005955760832875967
1772740183139577300,8.271577392578125,0.006108472589403391,0.009009997360408306,0.003970507066696882
1772740183158349300,8.290349365234375,0.004886778071522713,0.002748812548816204,-0.0009162708884105086
1772740183177121500,8.30912158203125,0.0006108472589403391,-0.013744063675403595,-0.008551862090826035
1772740183195893500,8.3278935546875,-0.0012216945178806782,-0.008246437646448612,-0.0068720318377017975
1772740183214665700,8.346665771484375,-0.0006108472589403391,0.0032069480512291193,-0.01695101149380207
1772740183233438000,8.36543798828125,0.0018325417768210173,-0.006413896102458239,-0.009315420873463154
1772740183252210200,8.384210205078125,0.0036650835536420345,-0.015423892997205257,-0.0036650835536420345
1772740183270982100,8.402982177734375,0.005497625097632408,-0.01511846948415041,-0.01847812905907631
1772740183289754400,8.42175439453125,0.005497625097632408,-0.0032069480512291193,-0.03527642786502838
1772740183308526600,8.440526611328124,0.008551862090826035,0.0030542362947016954,-0.020616095513105392
1772740183327298600,8.459298583984374,0.014660334214568138,-0.004428642801940441,0.004886778071522713
1772740183346070800,8.47807080078125,0.009773556143045425,0.0029015245381742716,0.0022906772792339325
1772740183364843000,8.496843017578126,0.0006108472589403391,0.009315420873463154,-0.007788302376866341
1772740183383615000,8.515614990234376,-0.0006108472589403391,0.014813045971095562,-0.014660334214568138
1772740183402387200,8.53438720703125,-0.0018325417768210173,0.0015271181473508477,-0.005803049076348543
1772740183421159400,8.553159423828125,-0.0030542362947016954,0.007024743594229221,-0.003359660040587187
1772740183439931400,8.571931396484375,-0.007330167107284069,0.003359660040587187,-0.003359660040587187
1772740183458703600,8.59070361328125,-0.00916270911693573,0.011911521665751934,-0.0022906772792339325
1772740183477475800,8.609475830078125,-0.012216945178806782,-0.004581354558467865,-0.0032069480512291193
1772740183496247800,8.628247802734375,-0.006108472589403391,0.001985253533348441,-0.013133215717971325
1772740183515020000,8.64702001953125,-0.009773556143045425,0.007635590620338917,-0.0009162708884105086
1772740183533792300,8.665792236328125,-0.0030542362947016954,-0.0007635590736754239,0.03955236077308655
1772740183552564200,8.684564208984375,-0.004886778071522713,-0.0010689827613532543,0.025197450071573257
1772740183571336400,8.70333642578125,-0.028098974376916885,0.006261184345930815,-0.016340164467692375
1772740183590108700,8.722108642578124,-0.03176405653357506,-0.007635590620338917,-0.008093725889921188
1772740183608880600,8.740880615234374,-0.008551862090826035,0.007788302376866341,0.005344913341104984
1772740183627652900,8.75965283203125,0.0006108472589403391,0.0036650835536420345,0.01038440316915512
1772740183646425000,8.778425048828124,0.004886778071522713,-0.016492875292897224,0.010078979656100273
1772740183665197000,8.797197021484376,0.01588202826678753,-0.0004581354442052543,-0.011911521665751934
1772740183683969300,8.81596923828125,0.006719320081174374,0.0038177953101694584,-0.018783552572131157
1772740183702741500,8.834741455078126,0,-0.012675080448389053,-0.017867282032966614
1772740183721513500,8.853513427734375,-0.01588202826678753,-0.009315420873463154,-0.032069481909275055
1772740183740285700,8.87228564453125,-0.018936265259981155,-0.003359660040587187,-0.045355409383773804
1772740183759058000,8.891057861328125,-0.0036650835536420345,0.0004581354442052543,-0.03176405653357506
1772740183777830000,8.909829833984375,0.0018325417768210173,0.001985253533348441,-0.020005248486995697
1772740183796602000,8.92860205078125,-0.0036650835536420345,-0.005344913341104984,-0.01252236869186163
1772740183815374300,8.947374267578125,-0.005497625097632408,-0.006413896102458239,-0.00992626789957285
1772740183834146600,8.966146484375,0.0012216945178806782,-0.003359660040587187,-0.006261184345930815
1772740183852918500,8.98491845703125,0.006108472589403391,-0.008857285603880882,-0.008704573847353458
1772740183871690800,9.003690673828125,0.007941014133393764,-0.013591351918876171,-0.0024433890357613564
1772740183890462700,9.022462646484374,0.01710372418165207,-0.027029991149902344,0.00030542362947016954
1772740183909235000,9.04123486328125,0.034818295389413834,-0.04550812020897865,-0.00992626789957285
1772740183928007200,9.060007080078124,0.01710372418165207,-0.02489202655851841,-0.01832541823387146
1772740183946779100,9.078779052734374,-0.01038440316915512,0.0038177953101694584,-0.013896775431931019
1772740183965551400,9.09755126953125,0.0012216945178806782,-0.0024433890357613564,-0.02244863659143448
1772740183984323600,9.116323486328126,0.0036650835536420345,0.0018325417768210173,-0.02244863659143448
1772740184003095600,9.135095458984376,0.0024433890357613564,0.004428642801940441,-0.010689826682209969
1772740184021867800,9.15386767578125,-0.0006108472589403391,0.00992626789957285,-0.010231691412627697
1772740184040640000,9.172639892578125,0.0024433890357613564,0.0018325417768210173,0.011606098152697086
1772740184059412200,9.191412109375,0.007941014133393764,0.020616095513105392,0.009315420873463154
1772740184078184200,9.21018408203125,0.0030542362947016954,0.011453386396169662,0.006413896102458239
1772740184096956400,9.228956298828125,0.0018325417768210173,0.004734066314995289,0.0029015245381742716
1772740184115728600,9.247728759765625,0.004886778071522713,0.007941014133393764,-0.016340164467692375
1772740184134500600,9.26650048828125,-0.0030542362947016954,0.007788302376866341,-0.03558185324072838
1772740184153272800,9.28527294921875,-0.015271181240677834,-0.0007635590736754239,-0.037261683493852615
1772740184172045000,9.304045166015625,-0.03298575058579445,0.00519220158457756,-0.03802524134516716
1772740184190817000,9.322817138671875,-0.042759306728839874,0.009773556143045425,-0.061084724962711334
1772740184209589200,9.34158935546875,-0.05008947476744652,-0.038788799196481705,-0.05390727147459984
1772740184228361500,9.360361572265624,-0.04703523963689804,-0.03512371703982353,-0.011300674639642239
1772740184247133400,9.379133544921874,-0.025655584409832954,-0.008551862090826035,0.012980503961443901
1772740184265905700,9.39790576171875,-0.015271181240677834,-0.01710372418165207,0.01252236869186163
1772740184284678000,9.416677978515626,-0.034818295389413834,-0.01832541823387146,0.008857285603880882
1772740184303449900,9.435449951171876,-0.0397050715982914,-0.004886778071522713,0.007330167107284069
1772740184322222000,9.45422216796875,-0.02626643143594265,-0.017561858519911766,0.021226942539215088
1772740184340994300,9.472994384765625,-0.0012216945178806782,-0.016034740954637527,-0.0004581354442052543
1772740184359766300,9.491766357421875,0.006108472589403391,-0.007788302376866341,-0.020463382825255394
1772740184378538500,9.51053857421875,0.013438640162348747,0.01588202826678753,-0.020157959312200546
1772740184397310700,9.529310791015625,0.010995250195264816,0.016034740954637527,-0.01038440316915512
1772740184416082700,9.548082763671875,0,0.016187451779842377,-0.004123218823224306
1772740184434855000,9.56685498046875,-0.036039989441633224,0.054518118500709534,0.00015271181473508477
1772740184453627100,9.585627197265625,-0.07498150318861008,-0.014202198944985867,0.0794101431965828
1772740184472399000,9.604399169921875,-0.045202698558568954,0.021532366052269936,0.1053711548447609
1772740184491171300,9.62317138671875,-0.034818295389413834,-0.012369656935334206,0.12018419802188873
1772740184509943600,9.641943603515625,-0.004886778071522713,-0.005497625097632408,0.08735115826129913
1772740184528715500,9.660715576171874,0.01038440316915512,0.023059483617544174,0.016187451779842377
1772740184547487700,9.67948779296875,-0.0024433890357613564,0.05665608495473862,-0.014202198944985867
1772740184566260000,9.698260009765624,-0.014049487188458443,0.08108997344970703,-0.009620844386518002
1772740184585032000,9.717031982421876,-0.062306419014930725,0.06887302547693253,0.061084724962711334
1772740184603804200,9.73580419921875,-0.05131116881966591,-0.022754060104489326,0.11483928561210632
1772740184622576400,9.754576416015626,-0.010995250195264816,0.00030542362947016954,0.06917845457792282
1772740184641348400,9.773348388671875,-0.01588202826678753,-0.09147437661886215,0.08200624585151672
1772740184660120600,9.79212060546875,0.0024433890357613564,-0.07559234648942947,0.047646086663007736
1772740184678892800,9.810892822265625,0.00916270911693573,-0.03817795217037201,-0.013744063675403595
1772740184697664800,9.829664794921875,0.0065666078589856625,0.00992626789957285,-0.091321662068367
1772740184716437000,9.84843701171875,-0.014202198944985867,0.04321744292974472,-0.17928366363048553
1772740184735209200,9.867209228515625,0.009009997360408306,0.04856235533952713,-0.21898874640464783
