time,seconds_elapsed,z,y,x
1772740855143393800,0.161393798828125,0.09727742522954941,-0.013896775431931019,-0.1253764033317566
1772740855162166300,0.180166259765625,0.09910997003316879,-0.030389651656150818,-0.1769929975271225
1772740855180939000,0.19893896484375,0.13148486614227295,-0.08047912269830704,-0.22250111401081085
1772740855199711700,0.217711669921875,0.20463383197784424,-0.04886778071522713,-0.1841704547405243
1772740855218484200,0.236484130859375,0.28160059452056885,-0.05772506445646286,-0.1244601309299469
1772740855237257000,0.255257080078125,0.32008397579193115,-0.13056860864162445,-0.04077405482530594
1772740855256029700,0.27402978515625,0.30664533376693726,-0.1375933438539505,0.05787777900695801
1772740855274802200,0.29280224609375,0.2848075330257416,-0.16080553829669952,0.08979454636573792
1772740855293575000,0.311574951171875,0.2829749882221222,-0.19989976286888123,0.03665083646774292
1772740855312347600,0.33034765625,0.27503398060798645,-0.2367033064365387,-0.053143709897994995
1772740855331120000,0.3491201171875,0.23593975603580475,-0.2363978922367096,-0.08276980370283127
1772740855349892900,0.367892822265625,0.11270131915807724,-0.20814619958400726,-0.17745113372802734
1772740855368665300,0.386665283203125,0.047798797488212585,-0.06734590977430344,-0.24449162185192108
1772740855387438000,0.40543798828125,-0.019394399598240852,0.03573456406593323,-0.22341738641262054
1772740855406210800,0.4242109375,-0.18050536513328552,0.0050394898280501366,-0.279920756816864
1772740855424983300,0.4429833984375,-0.37567105889320374,-0.0325276181101799,-0.34665581583976746
1772740855443756000,0.461756103515625,-0.48608171939849854,-0.016645587980747223,-0.35322242975234985
1772740855462528800,0.48052880859375,-0.48791423439979553,0.04963133856654167,-0.2727433145046234
1772740855481301200,0.49930126953125,-0.4214846193790436,0.1172826737165451,-0.22692975401878357
1772740855500074000,0.518073974609375,-0.335507869720459,0.23914669454097748,-0.18142163753509521
1772740855518846700,0.5368466796875,-0.27946263551712036,0.43293800950050354,-0.12430741637945175
1772740855537619200,0.555619140625,-0.22341738641262054,0.5937435626983643,-0.1519482582807541
1772740855556392000,0.574391845703125,-0.14782503247261047,0.6229115128517151,-0.2670929729938507
1772740855575164700,0.59316455078125,-0.1044548824429512,0.45508119463920593,-0.3749074935913086
1772740855593937200,0.611937255859375,-0.13362284004688263,0.17592400312423706,-0.4043808877468109
1772740855612696800,0.63069677734375,-0.19883078336715698,0.026724567636847496,-0.3379512429237366
1772740855631482400,0.649482421875,-0.23410721123218536,0.007482878863811493,-0.20875705778598785
1772740855650255000,0.668255126953125,-0.18401773273944855,0.023059483617544174,-0.03374931216239929
1772740855669027800,0.68702783203125,-0.072232685983181,0.054518118500709534,0.15087927877902985
1772740855687800300,0.70580029296875,0.04306473210453987,0.06001574173569679,0.2683146595954895
1772740855706573000,0.724572998046875,0.15408621728420258,0.125987246632576,0.32909396290779114
1772740855725345800,0.743345703125,0.2724378705024719,0.28877803683280945,0.3831539452075958
1772740855744118300,0.7621181640625,0.41888850927352905,0.4566083252429962,0.49585527181625366
1772740855762891000,0.78089111328125,0.5628957748413086,0.4593571424484253,0.6778877377510071
1772740855781663700,0.799663818359375,0.6655181050300598,0.29442837834358215,0.8951966762542725
1772740855800436200,0.818436279296875,0.71453857421875,0.03665083646774292,1.0306520462036133
1772740855819209000,0.837208984375,0.7232431769371033,-0.21410197019577026,1.0283613204956055
1772740855837981700,0.855981689453125,0.7069029808044434,-0.3590254783630371,0.9746068120002747
1772740855856754200,0.874754150390625,0.6482616662979126,-0.4381301999092102,0.9017632603645325
1772740855875527000,0.89352685546875,0.5421269536018372,-0.49325916171073914,0.8335011005401611
1772740855894299400,0.91229931640625,0.3730749487876892,-0.2777827978134155,0.8739697337150574
1772740855913072000,0.931072021484375,0.17454960942268372,0.05390727147459984,0.8072346448898315
1772740855931844900,0.949844970703125,0.1695101112127304,0.2527380585670471,0.8376243114471436
1772740855950604300,0.968604248046875,0.13408097624778748,0.36971530318260193,0.8405258059501648
1772740855969390000,0.98739013671875,0.0925433561205864,0.4068242609500885,0.844649076461792
1772740855988162800,1.006162841796875,0.07116370648145676,0.35383328795433044,0.7979192137718201
1772740856006935300,1.024935302734375,0.04550812020897865,0.26663482189178467,0.677582323551178
1772740856025708000,1.0437080078125,0.032069481909275055,0.22402822971343994,0.5260922312736511
1772740856044480800,1.062480712890625,0.03023693896830082,0.1913478970527649,0.3762819170951843
1772740856063253200,1.081253173828125,0.025961007922887802,0.125987246632576,0.24433889985084534
1772740856082026000,1.10002587890625,0.011911521665751934,0.07482878863811493,0.16844113171100616
1772740856100798700,1.118798828125,-0.027793550863862038,0.06749862432479858,0.16172181069850922
1772740856119571500,1.137571533203125,-0.08628217875957489,0.007635590620338917,0.14675605297088623
1772740856138344000,1.156343994140625,-0.13148486614227295,-0.11117420345544815,0.06780404597520828
1772740856157116700,1.17511669921875,-0.14721418917179108,-0.2510582208633423,-0.046729814261198044
1772740856175889200,1.19388916015625,-0.1575985997915268,-0.27976804971694946,-0.08948912471532822
1772740856194662000,1.212661865234375,-0.16065283119678497,-0.28251686692237854,-0.15149012207984924
1772740856213434600,1.2314345703125,-0.1516428291797638,-0.3701734244823456,-0.3417690396308899
1772740856232207000,1.25020703125,-0.15958385169506073,-0.5057815313339233,-0.5653391480445862
1772740856250979800,1.268979736328125,-0.1644706279039383,-0.5154023766517639,-0.7143858671188354
1772740856269752600,1.287752685546875,-0.10048437118530273,-0.38819342851638794,-0.7860077023506165
1772740856288525300,1.306525390625,-0.09330692142248154,-0.3246653079986572,-0.925128161907196
1772740856307297800,1.3252978515625,-0.17928366363048553,-0.4431696832180023,-1.1850436925888062
1772740856326070500,1.344070556640625,-0.2880144715309143,-0.3486410677433014,-1.361273169517517
1772740856344830000,1.362829833984375,-0.4437805414199829,-0.09651386737823486,-1.46511709690094
1772740856363615700,1.38161572265625,-0.6032116413116455,0.16767756640911102,-1.5381133556365967
1772740856382388500,1.400388427734375,-0.6369609832763672,0.4372139275074005,-1.4625210762023926
1772740856401148000,1.41914794921875,-0.42041563987731934,0.783869743347168,-1.0497410297393799
1772740856419933700,1.43793359375,-0.040010496973991394,0.9229902029037476,-0.4100312292575836
1772740856438706400,1.45670654296875,0.2641914486885071,0.6410841941833496,0.08063183724880219
1772740856457465900,1.4754658203125,0.3883461356163025,0.17393875122070312,0.23914669454097748
1772740856476251600,1.494251708984375,0.26464956998825073,-0.36696648597717285,0.09239064902067184
1772740856495024400,1.5130244140625,-0.07452336698770523,-0.6784985661506653,-0.1441599577665329
1772740856513797000,1.531797119140625,-0.49921491742134094,-0.611152708530426,-0.3187095522880554
1772740856532569600,1.550569580078125,-0.8454126119613647,-0.36849361658096313,-0.40453359484672546
1772740856551342300,1.56934228515625,-0.9914051294326782,-0.08017370104789734,-0.36757734417915344
1772740856570115000,1.588114990234375,-0.9353598356246948,0.15866757929325104,-0.2698417901992798
1772740856588887600,1.606887451171875,-0.7779139876365662,0.3148917555809021,-0.16874656081199646
1772740856607660300,1.625660400390625,-0.612527072429657,0.35200074315071106,-0.12904147803783417
1772740856626433000,1.64443310546875,-0.5045598149299622,0.28816720843315125,-0.1563768982887268
1772740856645205500,1.66320556640625,-0.45263782143592834,0.2376195788383484,-0.20310671627521515
1772740856663978200,1.681978271484375,-0.42881476879119873,0.23991025984287262,-0.2483094036579132
1772740856682751000,1.7007509765625,-0.42224815487861633,0.22189027070999146,-0.3501681983470917
1772740856701523500,1.7195234375,-0.4277457892894745,0.16462333500385284,-0.5063923597335815
1772740856720296200,1.738296142578125,-0.4234698712825775,0.1498102843761444,-0.626882016658783
1772740856739069000,1.75706884765625,-0.38391751050949097,0.1575985997915268,-0.640626072883606
1772740856757841700,1.775841552734375,-0.26663482189178467,0.2605263590812683,-0.4815003573894501
1772740856776614100,1.7946142578125,-0.04703523963689804,0.3461976945400238,-0.21364383399486542
1772740856795387000,1.813386962890625,0.2441861927509308,0.27152159810066223,0.06581879407167435
1772740856814159400,1.832159423828125,0.5551074743270874,0.04963133856654167,0.3107685446739197
1772740856832932000,1.85093212890625,0.7931851744651794,-0.15683503448963165,0.46012070775032043
1772740856851704800,1.869704833984375,0.8603783845901489,-0.3461976945400238,0.4494308829307556
1772740856870477300,1.888477294921875,0.7177455425262451,-0.6639909744262695,0.24097923934459686
1772740856889250000,1.90725,0.4865398406982422,-0.8780929446220398,0.04978405311703682
1772740856908022800,1.926022705078125,0.3443651497364044,-0.9229902029037476,0.1385096162557602
1772740856926795500,1.94479541015625,0.3054236173629761,-0.8866447806358337,0.319320410490036
1772740856945568000,1.963568115234375,0.37735089659690857,-0.733474850654602,0.46393850445747375
1772740856964340700,1.9823408203125,0.49493899941444397,-0.388651579618454,0.6055023670196533
1772740856983113500,2.001113525390625,0.6387935280799866,0.15515519678592682,0.7881456613540649
1772740857001886000,2.019885986328125,0.8594620823860168,0.6904101371765137,1.0086615085601807
1772740857020645600,2.038645751953125,1.096165418624878,0.8675557971000671,1.1986349821090698
1772740857039431400,2.057431396484375,1.2953015565872192,0.5883986353874207,1.2936217784881592
1772740857058204200,2.0762041015625,1.3621894121170044,0.016187451779842377,1.286138892173767
1772740857076976600,2.0949765625,1.2142115831375122,-0.6372663974761963,1.1277767419815063
1772740857095749400,2.113749267578125,0.9145910739898682,-1.0392038822174072,0.9084826111793518
1772740857114522000,2.132522216796875,0.5923691391944885,-1.121057391166687,0.7298097610473633
1772740857133294600,2.151294677734375,0.39170581102371216,-1.0608890056610107,0.6474980711936951
1772740857152067300,2.1700673828125,0.2163926362991333,-0.8031114339828491,0.6650599241256714
1772740857170840000,2.188840087890625,0.02886253222823143,-0.3352024257183075,0.7017107605934143
1772740857189612500,2.207612548828125,-0.04413371533155441,0.12781979143619537,0.6274928450584412
1772740857208385300,2.22638525390625,0.04963133856654167,0.4969242513179779,0.4975350797176361
1772740857227158000,2.245157958984375,0.1916533261537552,0.617719292640686,0.4068242609500885
1772740857245917400,2.26391748046875,0.2832804024219513,0.4937172830104828,0.34039464592933655
1772740857264703200,2.282703125,0.29061058163642883,0.30817243456840515,0.265718549489975
1772740857283476000,2.30147607421875,0.18753011524677277,0.23441264033317566,0.1779092699289322
1772740857302248400,2.32024853515625,0.001374406274408102,0.19501298666000366,0.03374931216239929
1772740857321021200,2.339021240234375,-0.1707318127155304,0.17088451981544495,-0.10949437320232391
1772740857339794000,2.3577939453125,-0.21715620160102844,0.1969982385635376,-0.19058434665203094
1772740857358566700,2.376566650390625,-0.15484978258609772,0.1782146841287613,-0.2632751762866974
1772740857377339100,2.395339111328125,-0.06398624926805496,0.12064233422279358,-0.23929941654205322
1772740857396112000,2.41411181640625,-0.027793550863862038,0.026724567636847496,-0.18050536513328552
1772740857414884600,2.432884521484375,-0.037567105144262314,-0.13453911244869232,-0.21532365679740906
1772740857433657000,2.451656982421875,-0.06139015033841133,-0.19592925906181335,-0.2551814317703247
1772740857452429800,2.470429931640625,-0.0778830274939537,-0.16996824741363525,-0.305118203163147
1772740857471202600,2.48920263671875,-0.04871506989002228,-0.07391251623630524,-0.3874298632144928
1772740857489975300,2.507975341796875,0.031916771084070206,-0.04825693368911743,-0.4918847680091858
1772740857508747800,2.526747802734375,0.04031591862440109,-0.1447708010673523,-0.70308518409729
1772740857527520500,2.5455205078125,-0.024281177669763565,-0.3432961702346802,-1.0227110385894775
1772740857546293200,2.564293212890625,-0.2098260372877121,-0.6004628539085388,-1.315917730331421
1772740857565065700,2.583065673828125,-0.41048935055732727,-0.6927008032798767,-1.4267865419387817
1772740857583838500,2.60183837890625,-0.5234960913658142,-0.6670452356338501,-1.380972981452942
1772740857602611200,2.620611083984375,-0.5033381581306458,-0.4143071472644806,-1.1712995767593384
1772740857621383700,2.6393837890625,-0.32100024819374084,0.11086877435445786,-0.7815790772438049
1772740857640143400,2.658143310546875,-0.0068720318377017975,0.5865660905838013,-0.328330397605896
1772740857658929200,2.67692919921875,0.2892361879348755,0.5381564497947693,0.0021379655227065086
1772740857677702000,2.695701904296875,0.4750864505767822,0.12033691257238388,0.19867807626724243
1772740857696474400,2.714474365234375,0.5027272701263428,-0.4187358021736145,0.24754585325717926
1772740857715247000,2.7332470703125,0.3936910629272461,-0.7779139876365662,0.1525591015815735
1772740857734019800,2.752019775390625,0.1776038408279419,-0.8235748410224915,-0.04367557913064957
1772740857752779300,2.770779296875,-0.15149012207984924,-0.6401679515838623,-0.30404922366142273
1772740857771565000,2.78956494140625,-0.5135698318481445,-0.3187095522880554,-0.5917583107948303
1772740857790337800,2.808337890625,-0.7908945083618164,0.1375933438539505,-0.7882983684539795
1772740857809110300,2.8271103515625,-0.911384105682373,0.5625903010368347,-0.7788302302360535
1772740857827883000,2.845883056640625,-0.8655705451965332,0.7490514516830444,-0.6441384553909302
1772740857846655700,2.86465576171875,-0.6977402567863464,0.6852179169654846,-0.4844018816947937
1772740857865428500,2.883428466796875,-0.4808894991874695,0.5346440672874451,-0.34971004724502563
1772740857884201000,2.902200927734375,-0.3258870244026184,0.39506545662879944,-0.28098973631858826
1772740857902973700,2.9209736328125,-0.2360924631357193,0.32726141810417175,-0.2593046724796295
1772740857921746400,2.939746337890625,-0.16966283321380615,0.3352024257183075,-0.21593450009822845
1772740857940519200,2.958519287109375,-0.08353336155414581,0.319320410490036,-0.14751961827278137
1772740857959291600,2.977291748046875,0.025197450071573257,0.2757975459098816,-0.08551861345767975
1772740857978064400,2.996064453125,0.15026842057704926,0.21898874640464783,-0.06337540596723557
1772740857996837000,3.014837158203125,0.2680092453956604,0.20692451298236847,-0.055739812552928925
1772740858015609600,3.033609619140625,0.381474107503891,0.2229592502117157,-0.001374406274408102
1772740858034382300,3.05238232421875,0.4883723855018616,0.22677704691886902,0.08276980370283127
1772740858053155000,3.071155029296875,0.5720584392547607,0.1832541823387146,0.18081079423427582
1772740858071927800,3.089927734375,0.642916738986969,0.08383878320455551,0.2438807636499405
1772740858090700300,3.1087001953125,0.6881194114685059,0.007941014133393764,0.29061058163642883
1772740858109473000,3.12747314453125,0.7284353375434875,0.013133215717971325,0.314586341381073
1772740858128245800,3.146245849609375,0.7453863620758057,0.050547610968351364,0.29656633734703064
1772740858147018200,3.165018310546875,0.756381630897522,0.10552386194467545,0.31229567527770996
1772740858165791000,3.183791015625,0.7461498975753784,-0.0331384651362896,0.31168481707572937
1772740858184563700,3.202563720703125,0.693617045879364,-0.21440738439559937,0.2432699203491211
1772740858203336400,3.22133642578125,0.5984776020050049,-0.3365768492221832,0.12965233623981476
1772740858222109000,3.24010888671875,0.469741553068161,-0.3698680102825165,0.02870982140302658
1772740858240881700,3.258881591796875,0.36482852697372437,-0.29916244745254517,0.07009471952915192
1772740858259654400,3.277654296875,0.284196674823761,-0.19272230565547943,0.2223484069108963
1772740858278427000,3.296427001953125,0.27197974920272827,0.010842538438737392,0.4309527277946472
1772740858297199600,3.31519970703125,0.3518480062484741,0.3118375241756439,0.6514685750007629
1772740858315959300,3.333959228515625,0.5121954083442688,0.5679352283477783,0.8386932611465454
1772740858334744800,3.352744873046875,0.7105680704116821,0.7159129977226257,0.9704836010932922
1772740858353517600,3.371517578125,0.8771766424179077,0.6649072170257568,1.011104941368103
1772740858372290300,3.390290283203125,0.9327637553215027,0.4494308829307556,0.8898517489433289
1772740858391063000,3.40906298828125,0.8834378719329834,0.21165858209133148,0.6745280623435974
1772740858409835500,3.42783544921875,0.7608102560043335,0.038483377546072006,0.5277720093727112
1772740858428608300,3.446608154296875,0.5740436911582947,-0.10552386194467545,0.5025745630264282
1772740858447381000,3.465381103515625,0.32573428750038147,-0.15423893928527832,0.5777087807655334
1772740858466153500,3.484153564453125,0.0859767496585846,-0.10155335813760757,0.6627692580223083
1772740858484926200,3.50292626953125,-0.05803048983216286,0.010842538438737392,0.6922426819801331
1772740858503699000,3.521698974609375,-0.08063183724880219,0.1647760421037674,0.6905628442764282
1772740858522471700,3.5404716796875,-0.004428642801940441,0.31855684518814087,0.6872031688690186
1772740858541244200,3.559244140625,0.10094250738620758,0.45676103234291077,0.6864396333694458
1772740858560017000,3.578016845703125,0.1760767251253128,0.4769189953804016,0.6273401379585266
1772740858578789600,3.59678955078125,0.20402298867702484,0.3921639323234558,0.4934118688106537
1772740858597562000,3.61556201171875,0.1889045089483261,0.26877278089523315,0.31977853178977966
1772740858616334800,3.6343349609375,0.14797775447368622,0.10078980028629303,0.12339114397764206
1772740858635107600,3.653107666015625,0.12781979143619537,-0.06047387793660164,-0.032222192734479904
1772740858653880300,3.67188037109375,0.14492350816726685,-0.1175880953669548,-0.06581879407167435
1772740858672652800,3.69065283203125,0.2011214643716812,-0.14553436636924744,-0.030542362481355667
1772740858691425500,3.709425537109375,0.2695363461971283,-0.23028941452503204,-0.04092676565051079
1772740858710198300,3.7281982421875,0.3110739588737488,-0.31825143098831177,-0.09559759497642517
1772740858728971000,3.746970947265625,0.31473904848098755,-0.3840702176094055,-0.13957859575748444
1772740858747743500,3.765743408203125,0.30191126465797424,-0.37322768568992615,-0.222042977809906
1772740858766516200,3.78451611328125,0.2919849753379822,-0.28190600872039795,-0.37918344140052795
1772740858785289000,3.8032890625,0.24494975805282593,-0.21471281349658966,-0.592216432094574
1772740858804061400,3.8220615234375,0.10811996459960938,-0.24556060135364532,-0.9576557874679565
1772740858822821000,3.840821044921875,-0.11117420345544815,-0.14125843346118927,-1.3731846809387207
1772740858841607000,3.85960693359375,-0.3549022674560547,0.16065283119678497,-1.6350853443145752
1772740858860379600,3.878379638671875,-0.5204418897628784,0.45080527663230896,-1.7148009538650513
1772740858879139000,3.89713916015625,-0.4534013867378235,0.6836907863616943,-1.6039321422576904
1772740858897924900,3.9159248046875,-0.1495048701763153,0.7496622800827026,-1.2867497205734253
1772740858916697600,3.934697509765625,0.26694026589393616,0.6717792749404907,-0.8196043372154236
1772740858935470300,3.95347021484375,0.6180247068405151,0.49051034450531006,-0.3530697226524353
1772740858954242800,3.972242919921875,0.8061656951904297,0.21532365679740906,-0.09040539711713791
1772740858973015600,3.991015625,0.8429692387580872,-0.0859767496585846,-0.05894676223397255
1772740858991788300,4.009788330078125,0.7204943299293518,-0.3248180150985718,-0.12140589207410812
1772740859010560800,4.028560791015625,0.4494308829307556,-0.3855973184108734,-0.2354816198348999
1772740859029333500,4.04733349609375,0.1247655525803566,-0.2930539846420288,-0.42667680978775024
1772740859048106200,4.066106201171875,-0.1310267299413681,-0.05757235363125801,-0.5845808386802673
1772740859066879000,4.08487890625,-0.24785128235816956,0.2596100866794586,-0.6146650314331055
1772740859085651500,4.1036513671875,-0.18691925704479218,0.5198310017585754,-0.5476245880126953
1772740859104411100,4.1224111328125,0.011453386396169662,0.5349494814872742,-0.39796698093414307
1772740859123197000,4.141197021484375,0.2770192325115204,0.34253260493278503,-0.28908345103263855
1772740859141969700,4.1599697265625,0.49921491742134094,0.1178935244679451,-0.2217375487089157
1772740859160742100,4.1787421875,0.6232169270515442,0.006719320081174374,-0.20234315097332
1772740859179515000,4.197514892578125,0.7036960124969482,-0.007941014133393764,-0.2429644912481308
1772740859198287600,4.21628759765625,0.7592831254005432,-0.037414394319057465,-0.33596599102020264
1772740859217060400,4.235060302734375,0.8226585388183594,-0.14125843346118927,-0.43614494800567627
1772740859235832800,4.253832763671875,0.9106205701828003,-0.21349111199378967,-0.46516019105911255
1772740859254605600,4.27260546875,1.0265288352966309,-0.22402822971343994,-0.4333961308002472
1772740859273378300,4.29137841796875,1.1871815919876099,-0.20234315097332,-0.3396310806274414
1772740859292150800,4.31015087890625,1.3921209573745728,-0.15362808108329773,-0.17454960942268372
1772740859310923500,4.328923583984375,1.6326420307159424,-0.11926792562007904,0.034818295389413834
1772740859329696300,4.3476962890625,1.885990858078003,-0.10048437118530273,0.2307475507259369
1772740859348469000,4.366468994140625,2.0446584224700928,-0.11025793105363846,0.3474193811416626
1772740859367241500,4.385241455078125,2.0837526321411133,-0.14156384766101837,0.35856732726097107
1772740859386014200,4.40401416015625,2.04221510887146,-0.1620272397994995,0.30191126465797424
1772740859404787000,4.422786865234375,2.0025100708007812,-0.07605048269033432,0.27320143580436707
1772740859423559700,4.4415595703125,2.001746416091919,0.007177455350756645,0.2629697322845459
1772740859442332200,4.460332275390625,2.0347321033477783,-0.06032116711139679,0.23196925222873688
1772740859461105000,4.47910498046875,2.045269250869751,-0.2339545041322708,0.1782146841287613
1772740859479877600,4.497877685546875,2.036717414855957,-0.28343313932418823,0.1692046970129013
1772740859498650000,4.516650146484375,2.103147029876709,-0.05665608495473862,0.3124483823776245
1772740859517422800,4.5354228515625,2.250819444656372,0.19837264716625214,0.5795413255691528
1772740859536195600,4.554195556640625,2.3911616802215576,0.1459924876689911,0.7316423058509827
1772740859554968300,4.57296826171875,2.47377872467041,-0.12705622613430023,0.7094991207122803
1772740859573740800,4.59174072265625,2.3969645500183105,-0.2304421216249466,0.6308525204658508
1772740859592513500,4.610513427734375,2.2320358753204346,-0.03374931216239929,0.6018372774124146
1772740859611286300,4.629286376953125,2.1068122386932373,0.2145601063966751,0.5984776020050049
1772740859630059000,4.64805908203125,2.0872650146484375,0.28404396772384644,0.6070294380187988
1772740859648831500,4.66683154296875,2.132467746734619,0.2098260372877121,0.6529957056045532
1772740859667604200,4.685604248046875,2.1544582843780518,0.08108997344970703,0.7061394453048706
1772740859686377000,4.704376953125,2.1014673709869385,-0.012369656935334206,0.7195780873298645
1772740859705149400,4.7231494140625,2.0087711811065674,-0.0035123717971146107,0.7009472250938416
1772740859723922200,4.741922119140625,1.8975969552993774,0.029320668429136276,0.6569662094116211
1772740859742695000,4.76069482421875,1.8134528398513794,0.02733541466295719,0.6061131954193115
1772740859761467600,4.779467529296875,1.7822996377944946,-0.015271181240677834,0.5673243999481201
1772740859780240100,4.798240234375,1.7590874433517456,-0.0328330397605896,0.5378510355949402
1772740859799012900,4.817012939453125,1.6802880764007568,0.018019994720816612,0.4781406819820404
1772740859817785600,4.83578564453125,1.5295615196228027,0.11010521650314331,0.3828485310077667
1772740859836558300,4.854558349609375,1.3664653301239014,0.22616620361804962,0.2576248347759247
1772740859855330800,4.873330810546875,1.2522368431091309,0.32069480419158936,0.11025793105363846
1772740859874103600,4.892103515625,1.203369140625,0.4217900335788727,0.007482878863811493
1772740859892876300,4.910876220703125,1.2106993198394775,0.5448757410049438,-0.028251685202121735
1772740859911648800,4.929648681640625,1.2533059120178223,0.6423059105873108,-0.021379653364419937
1772740859930421500,4.94842138671875,1.290414810180664,0.6696413159370422,-0.021837789565324783
1772740859949194200,4.9671943359375,1.313627004623413,0.6436802744865417,-0.041232191026210785
1772740859967967000,4.985967041015625,1.3392826318740845,0.59023118019104,-0.07421794533729553
1772740859986739500,5.004739501953125,1.3814311027526855,0.5464028716087341,-0.12003148347139359
1772740860005512200,5.02351220703125,1.4076975584030151,0.5005893111228943,-0.17118994891643524
1772740860024285000,5.042284912109375,1.4040324687957764,0.4874561131000519,-0.22036315500736237
1772740860043057700,5.0610576171875,1.3832635879516602,0.4324798583984375,-0.358720064163208
1772740860061830100,5.079830078125,1.3307307958602905,0.3596363365650177,-0.6117635369300842
1772740860080603000,5.098602783203125,1.1926792860031128,0.377198189496994,-0.9310839176177979
1772740860099375600,5.117375732421875,1.0405782461166382,0.49020493030548096,-1.2019946575164795
1772740860118148400,5.1361484375,0.9885035753250122,0.7215633392333984,-1.2334532737731934
1772740860136920800,5.1549208984375,1.1086877584457397,0.9345963001251221,-1.0410364866256714
1772740860155693600,5.173693603515625,1.3992983102798462,1.0060654878616333,-0.7518002390861511
1772740860174453200,5.192453369140625,1.7618361711502075,0.9266552925109863,-0.5051707029342651
1772740860193239000,5.211239013671875,2.025569438934326,0.7003363966941833,-0.3727695345878601
1772740860212011500,5.230011474609375,2.126512050628662,0.45049986243247986,-0.3570402264595032
1772740860230784300,5.2487841796875,2.0898611545562744,0.2579302489757538,-0.45385950803756714
1772740860249557000,5.267556884765625,1.9831156730651855,0.12140589207410812,-0.6271874308586121
1772740860268329700,5.286329833984375,1.8665964603424072,0.0522274412214756,-0.8079982399940491
1772740860287102200,5.305102294921875,1.753131628036499,-0.1053711548447609,-0.9642223715782166
1772740860305875000,5.323875,1.5639216899871826,-0.3436015844345093,-1.1387720108032227
1772740860324647700,5.342647705078125,1.320499062538147,-0.3032856583595276,-1.1638166904449463
1772740860343420200,5.361420166015625,1.1848909854888916,-0.03787253051996231,-0.8919897079467773
1772740860362193000,5.38019287109375,1.2966760396957397,0.18753011524677277,-0.45080527663230896
1772740860380965600,5.398965576171875,1.511694312095642,0.10353861004114151,-0.14767232537269592
1772740860399738400,5.41773828125,1.621646761894226,-0.14522893726825714,-0.06139015033841133
1772740860418510800,5.4365107421875,1.5552171468734741,-0.35566580295562744,-0.0916270911693573
1772740860437283600,5.45528369140625,1.3288981914520264,-0.4486673176288605,-0.13331741094589233
1772740860456056300,5.474056396484375,1.0836430788040161,-0.4230117201805115,-0.12751436233520508
1772740860474829000,5.4928291015625,0.9419264793395996,-0.3423798978328705,-0.07452336698770523
1772740860493601500,5.5116015625,0.9352071285247803,-0.23288552463054657,0.0021379655227065086
1772740860512374300,5.530374267578125,1.0213366746902466,-0.17622943222522736,0.08719844371080399
1772740860531147000,5.54914697265625,1.112200140953064,-0.20753535628318787,0.18187977373600006
1772740860549919500,5.56791943359375,1.1545013189315796,-0.26968905329704285,0.28633466362953186
1772740860568692200,5.586692138671875,1.1233481168746948,-0.2829749882221222,0.37826716899871826
1772740860587465000,5.60546484375,1.0673028230667114,-0.2843494117259979,0.4743228852748871
1772740860606237700,5.62423779296875,1.0434798002243042,-0.28664007782936096,0.6044333577156067
1772740860625010200,5.64301025390625,1.0581401586532593,-0.27564483880996704,0.7533273696899414
1772740860643783000,5.661782958984375,1.1228899955749512,-0.21272756159305573,0.8890882134437561
1772740860662555600,5.6805556640625,1.177255392074585,-0.14522893726825714,0.9255862832069397
1772740860681328400,5.699328369140625,1.1673290729522705,-0.08582404255867004,0.8310576677322388
1772740860700100900,5.718100830078125,1.0757020711898804,-0.025808297097682953,0.6670452356338501
1772740860718873600,5.73687353515625,0.8638907074928284,-0.17241163551807404,0.39735615253448486
1772740860737633300,5.75563330078125,0.6113054156303406,-0.30969956517219543,0.17684027552604675
1772740860756418800,5.774418701171875,0.45324867963790894,-0.2539597451686859,0.16340164840221405
1772740860775191600,5.793191650390625,0.4628695249557495,0.07314895838499069,0.377198189496994
1772740860793964300,5.81196435546875,0.6293253898620605,0.5331169366836548,0.6412369012832642
1772740860812737000,5.830737060546875,0.8935168385505676,0.8272398710250854,0.8167027831077576
1772740860831509500,5.849509521484375,1.1796988248825073,0.8580876588821411,0.9555178284645081
1772740860850269200,5.868269287109375,1.4232741594314575,0.7218687534332275,1.1202938556671143
1772740860869055000,5.887054931640625,1.5668232440948486,0.4700469672679901,1.238340139389038
1772740860887827700,5.90582763671875,1.5805672407150269,0.13301199674606323,1.2091721296310425
1772740860906600200,5.92460009765625,1.4842060804367065,-0.2160872220993042,1.024238109588623
1772740860925373000,5.943373046875,1.2876659631729126,-0.3446705639362335,0.7806627750396729
1772740860944145700,5.962145751953125,1.0367605686187744,-0.2357870489358902,0.5415160655975342
1772740860962918400,5.98091845703125,0.7705838084220886,-0.13270656764507294,0.28755635023117065
1772740860981691000,5.99969091796875,0.5732801556587219,-0.0004581354442052543,0.1438545286655426
1772740861000463600,6.018463623046875,0.48424917459487915,0.129499614238739,0.16935740411281586
1772740861019236400,6.037236328125,0.5042544007301331,0.2635805904865265,0.30130040645599365
1772740861038009000,6.056009033203125,0.5761816501617432,0.42392799258232117,0.3987305462360382
1772740861056781600,6.074781494140625,0.6244385838508606,0.5150969624519348,0.3506263196468353
1772740861075554300,6.09355419921875,0.5761816501617432,0.5141806602478027,0.17409147322177887
1772740861094327000,6.1123271484375,0.4668400287628174,0.5004366040229797,-0.03634541109204292
1772740861113099800,6.131099853515625,0.3831539452075958,0.48806697130203247,-0.2026485800743103
1772740861131872300,6.149872314453125,0.3306210935115814,0.45889899134635925,-0.3104631304740906
1772740861150645000,6.16864501953125,0.29412296414375305,0.377198189496994,-0.4030064642429352
1772740861169417700,6.187417724609375,0.3002314269542694,0.2548760175704956,-0.4856235682964325
1772740861188190500,6.2061904296875,0.29473379254341125,0.14797775447368622,-0.577861487865448
1772740861206963000,6.224962890625,0.18371231853961945,0.002748812548816204,-0.650094211101532
1772740861225735700,6.243735595703125,0.13377554714679718,-0.1829487532377243,-0.6218425035476685
1772740861244508400,6.26250830078125,0.13514995574951172,-0.38223767280578613,-0.561826765537262
1772740861263281000,6.281281005859375,0.059557609260082245,-0.6195518374443054,-0.561826765537262
1772740861282053600,6.3000537109375,-0.03130592033267021,-0.7107207775115967,-0.51998370885849
1772740861300826400,6.318826416015625,-0.04046862944960594,-0.4906630516052246,-0.34879377484321594
1772740861319599000,6.33759912109375,-0.0021379655227065086,-0.17836740612983704,-0.222042977809906
1772740861338371600,6.35637158203125,-0.03451287001371384,-0.08628217875957489,-0.3246653079986572
1772740861357144300,6.375144287109375,-0.11086877435445786,-0.17332790791988373,-0.5943543910980225
1772740861375917000,6.3939169921875,-0.18661384284496307,-0.24372805655002594,-0.9242119193077087
1772740861394689800,6.412689697265625,-0.30878329277038574,-0.2432699203491211,-1.0952491760253906
1772740861413462300,6.431462158203125,-0.3643703758716583,-0.08887827396392822,-0.9463551044464111
1772740861432235000,6.450235107421875,-0.19226416945457458,0.2677038013935089,-0.4822639226913452
1772740861451007700,6.4690078125,0.1525591015815735,0.5231906771659851,0.054365407675504684
1772740861469767200,6.48776708984375,0.4352286756038666,0.455539345741272,0.2779355049133301
1772740861488553000,6.506552978515625,0.7319477200508118,0.24052110314369202,0.53143709897995
1772740861507325700,6.52532568359375,0.8310576677322388,-0.020310672000050545,0.5499152541160583
1772740861526098400,6.544098388671875,0.8102889060974121,-0.27839362621307373,0.3936910629272461
1772740861544871200,6.56287109375,0.605960488319397,-0.4506525695323944,0.18997350335121155
1772740861563643600,6.5816435546875,0.2611372172832489,-0.4497362971305847,0.014660334214568138
1772740861582416400,6.60041650390625,-0.09300149232149124,-0.3217637836933136,-0.13652436435222626
1772740861601189000,6.619189208984375,-0.36039987206459045,-0.1241547018289566,-0.25594499707221985
1772740861619961600,6.637961669921875,-0.47646087408065796,0.1779092699289322,-0.3214583694934845
1772740861638734300,6.656734375,-0.45828816294670105,0.4074351191520691,-0.3504736125469208
1772740861657507000,6.675507080078125,-0.3637595474720001,0.5057815313339233,-0.35917818546295166
1772740861676279800,6.69427978515625,-0.24846212565898895,0.44362783432006836,-0.3640649616718292
1772740861695052300,6.71305224609375,-0.14034216105937958,0.3512371778488159,-0.3568875193595886
1772740861713825000,6.731824951171875,-0.05115845799446106,0.26968905329704285,-0.32191649079322815
1772740861732597800,6.75059765625,0.008704573847353458,0.15332266688346863,-0.3258870244026184
1772740861751370500,6.76937060546875,0.07391251623630524,0.09956810623407364,-0.30756160616874695
1772740861770143200,6.788143310546875,0.14721418917179108,0.05268557742238045,-0.30664533376693726
1772740861788915700,6.806915771484375,0.2423536479473114,0.04856235533952713,-0.29794076085090637
1772740861807688400,6.8256884765625,0.3229855000972748,0.049020491540431976,-0.2644968628883362
1772740861826461200,6.844461181640625,0.36635565757751465,0.053143709897994995,-0.15988926589488983
1772740861845233700,6.863233642578125,0.4127800464630127,0.04871506989002228,0.05757235363125801
1772740861864006400,6.88200634765625,0.474475622177124,0.0024433890357613564,0.28633466362953186
1772740861882779100,6.900779052734375,0.5489989519119263,-0.11300674080848694,0.37704548239707947
1772740861901551900,6.9195517578125,0.5990884304046631,-0.18126893043518066,0.3762819170951843
1772740861920324400,6.938324462890625,0.6058077812194824,-0.04291202127933502,0.4220954477787018
1772740861939097000,6.95709716796875,0.6143596172332764,0.10017894953489304,0.504865288734436
1772740861957869800,6.975869873046875,0.5960342288017273,-0.030695075169205666,0.5018110275268555
1772740861976642300,6.994642333984375,0.5338805317878723,-0.2725905776023865,0.4424061179161072
1772740861995415000,7.0134150390625,0.462564080953598,-0.3408527672290802,0.43568679690361023
1772740862014187800,7.032187744140625,0.3984251320362091,-0.2895416021347046,0.44332239031791687
1772740862032960500,7.05096044921875,0.333064466714859,-0.21058958768844604,0.43446511030197144
1772740862051733000,7.06973291015625,0.25747212767601013,-0.111021488904953,0.4190412163734436
1772740862070505700,7.088505615234375,0.18905723094940186,0.06001574173569679,0.42392799258232117
1772740862089278500,7.107278564453125,0.14186927676200867,0.2880144715309143,0.45737189054489136
1772740862108051200,7.12605126953125,0.14492350816726685,0.5190674662590027,0.5584670901298523
1772740862126823700,7.14482373046875,0.25655585527420044,0.6707102656364441,0.7928797602653503
1772740862145583400,7.163583251953125,0.474475622177124,0.5635066032409668,1.0251544713974
1772740862164369200,7.182369140625,0.705986738204956,0.25212720036506653,1.1479346752166748
1772740862183142000,7.201141845703125,0.8203678727149963,-0.1916533261537552,1.0966235399246216
1772740862201914400,7.219914306640625,0.7484406232833862,-0.555565595626831,0.899625301361084
1772740862220687000,7.23868701171875,0.5341859459877014,-0.7009472250938416,0.6743753552436829
1772740862239459800,7.2574599609375,0.25533416867256165,-0.7382088899612427,0.425607830286026
1772740862258232600,7.276232666015625,-0.016340164467692375,-0.6174138784408569,0.21394924819469452
1772740862277005000,7.295005126953125,-0.20692451298236847,-0.3029802441596985,0.1629435122013092
1772740862295777800,7.31377783203125,-0.28221142292022705,0.11957334727048874,0.2933593988418579
1772740862314550500,7.332550537109375,-0.254265159368515,0.4599680006504059,0.39414918422698975
1772740862333323300,7.3513232421875,-0.16340164840221405,0.5566345453262329,0.3521534502506256
1772740862352095700,7.370095703125,-0.091932512819767,0.48241662979125977,0.23273280262947083
1772740862370868500,7.388868408203125,-0.1041494607925415,0.3417690396308899,0.07742489129304886
1772740862389641200,7.40764111328125,-0.15301723778247833,0.252432644367218,-0.07207997888326645
1772740862408413700,7.42641357421875,-0.21226942539215088,0.14186927676200867,-0.24647687375545502
1772740862427186400,7.4451865234375,-0.27197974920272827,0.06642963737249374,-0.4352286756038666
1772740862445959200,7.463959228515625,-0.3136700689792633,0.08704573661088943,-0.557550847530365
1772740862464732000,7.48273193359375,-0.33917292952537537,0.03374931216239929,-0.6235223412513733
1772740862483504400,7.50150439453125,-0.33917292952537537,-0.05650337040424347,-0.6317687630653381
1772740862502277000,7.520277099609375,-0.3171824514865875,-0.08872556686401367,-0.596492350101471
1772740862521049900,7.5390498046875,-0.3067980408668518,-0.05986303091049194,-0.6520794630050659
1772740862539822600,7.557822509765625,-0.29839888215065,0.007788302376866341,-0.8360971808433533
1772740862558595000,7.576594970703125,-0.2576248347759247,0.06963659077882767,-0.9659022092819214
1772740862577367800,7.595367919921875,-0.20020519196987152,0.05405998229980469,-0.9495620727539062
1772740862596140500,7.614140625,-0.20188501477241516,-0.20341213047504425,-0.9553651213645935
1772740862614913300,7.632913330078125,-0.2707580327987671,-0.5160132050514221,-0.9904888272285461
1772740862633685800,7.651685791015625,-0.45615020394325256,-0.6797202825546265,-1.0630269050598145
1772740862652445400,7.670445556640625,-0.7113316059112549,-0.6097782850265503,-1.183211088180542
1772740862671231200,7.689231201171875,-0.9214630722999573,-0.12873606383800507,-1.2032164335250854
1772740862690003700,7.708003662109375,-0.9315420985221863,0.5094466209411621,-0.9747595191001892
1772740862708763400,7.726763427734375,-0.5752654075622559,0.9124531149864197,-0.5089884996414185
1772740862727549200,7.745549072265625,-0.09727742522954941,0.9579612016677856,0.026571854948997498
1772740862746322000,7.764322021484375,0.2515163719654083,0.6768187880516052,0.4503471553325653
1772740862765081300,7.783081298828125,0.3555130958557129,0.2504473626613617,0.5801522135734558
1772740862783867100,7.8018671875,0.2208212912082672,-0.16111096739768982,0.3727695345878601
1772740862802640000,7.820639892578125,-0.03130592033267021,-0.42728766798973083,-0.06887302547693253
1772740862821412400,7.839412353515625,-0.31321191787719727,-0.46897798776626587,-0.4384356141090393
1772740862840185000,7.85818505859375,-0.6331431865692139,-0.254265159368515,-0.5972558856010437
1772740862858957800,7.876957763671875,-0.9316948056221008,0.09498675167560577,-0.6476507782936096
1772740862877730600,7.89573046875,-1.112505555152893,0.35322242975234985,-0.6679614782333374
1772740862896503000,7.9145029296875,-1.1169341802597046,0.5254813432693481,-0.6629219651222229
1772740862915275800,7.93327587890625,-0.9625425934791565,0.5401417016983032,-0.659562349319458
1772740862934048500,7.952048583984375,-0.7140804529190063,0.43232715129852295,-0.6203153729438782
1772740862952821200,7.9708212890625,-0.48760882019996643,0.28098973631858826,-0.5283828973770142
1772740862971593700,7.98959375,-0.3483356535434723,0.1973036676645279,-0.39796698093414307
1772740862990366500,8.008366455078125,-0.24281178414821625,0.16752485930919647,-0.2779355049133301
1772740863009139200,8.02713916015625,-0.12675081193447113,0.17256435751914978,-0.19379130005836487
1772740863027911700,8.04591162109375,-0.007788302376866341,0.2098260372877121,-0.10155335813760757
1772740863046684400,8.064684326171875,0.11361759155988693,0.2602209448814392,0.0022906772792339325
1772740863065457200,8.08345703125,0.1973036676645279,0.2551814317703247,0.1050657257437706
1772740863084229600,8.102229736328125,0.2492256760597229,0.23196925222873688,0.2157817929983139
1772740863103002400,8.12100244140625,0.33535513281822205,0.12736165523529053,0.29687178134918213
1772740863121775000,8.139775146484375,0.4337015450000763,0.08017370104789734,0.35856732726097107
1772740863140547600,8.158547607421875,0.49585527181625366,0.11835165321826935,0.3509317636489868
1772740863159320300,8.1773203125,0.5661026835441589,0.0659715011715889,0.34818294644355774
1772740863178093000,8.196093017578125,0.6143596172332764,-0.17256435751914978,0.3489464819431305
1772740863196865800,8.21486572265625,0.5900784730911255,-0.3023693859577179,0.3327590525150299
1772740863215638300,8.23363818359375,0.5613686442375183,-0.3061871826648712,0.2808370292186737
1772740863234411000,8.252410888671875,0.5088357925415039,-0.38391751050949097,0.17256435751914978
1772740863253183700,8.271183837890625,0.3837648034095764,-0.4874561131000519,0.053143709897994995
1772740863271956200,8.289956298828125,0.20066332817077637,-0.45172154903411865,-0.03802524134516716
1772740863290729000,8.30872900390625,0.09498675167560577,-0.149199441075325,0.004734066314995289
1772740863309501700,8.327501708984375,0.18814095854759216,0.3133646547794342,0.2916795611381531
1772740863328261000,8.34626123046875,0.4840964674949646,0.6093201637268066,0.6905628442764282
1772740863347047000,8.365046875,0.8394568562507629,0.577861487865448,1.015686273574829
1772740863365819600,8.383819580078125,1.0569185018539429,0.2793098986148834,1.1835166215896606
1772740863384592400,8.40259228515625,1.0790616273880005,-0.1973036676645279,1.0888352394104004
1772740863403364900,8.42136474609375,1.0101886987686157,-0.5413633584976196,0.8449544906616211
1772740863422137600,8.4401376953125,0.9289459586143494,-0.617719292640686,0.6308525204658508
1772740863440910300,8.458910400390625,0.8031114339828491,-0.4653128981590271,0.5395308136940002
1772740863459682800,8.477682861328125,0.6474980711936951,-0.26312246918678284,0.5486935377120972
1772740863478455600,8.49645556640625,0.5057815313339233,-0.16172181069850922,0.5667135715484619
1772740863497228300,8.515228271484375,0.35200074315071106,-0.062306419014930725,0.5425850749015808
1772740863516000800,8.534000732421875,0.2104368805885315,0.056808795779943466,0.4938700199127197
1772740863534773500,8.5527734375,0.14492350816726685,0.17928366363048553,0.42850935459136963
1772740863553546200,8.571546142578125,0.15530791878700256,0.27976804971694946,0.35917818546295166
1772740863572318700,8.590318603515625,0.1716480851173401,0.3342861533164978,0.2987042963504791
1772740863591091500,8.609091552734375,0.15026842057704926,0.3310792148113251,0.21196399629116058
1772740863609864200,8.6278642578125,0.09300149232149124,0.2435753494501114,0.0719272643327713
1772740863628636700,8.64663671875,0.0038177953101694584,0.13866232335567474,-0.10094250738620758
1772740863647409400,8.665409423828125,-0.10231691598892212,0.0328330397605896,-0.22097399830818176
1772740863666182100,8.68418212890625,-0.20356485247612,-0.01710372418165207,-0.22555534541606903
1772740863684954600,8.70295458984375,-0.2701472043991089,-0.055892523378133774,-0.24662958085536957
1772740863703727400,8.721727294921875,-0.3133646547794342,-0.15271180868148804,-0.3755183517932892
1772740863722500000,8.7405,-0.36101073026657104,-0.23319093883037567,-0.5331169366836548
1772740863741272600,8.7592724609375,-0.43919917941093445,-0.28999972343444824,-0.660936713218689
1772740863760045300,8.77804541015625,-0.5404471158981323,-0.27915719151496887,-0.7502731680870056
1772740863778805000,8.796804931640626,-0.6277982592582703,-0.2079934924840927,-0.7911999225616455
1772740863797590500,8.815590576171875,-0.6259657144546509,-0.10094250738620758,-0.6749862432479858
1772740863816363300,8.83436328125,-0.5581616759300232,-0.09086353331804276,-0.5042544007301331
1772740863835136000,8.853135986328125,-0.5624375939369202,-0.2698417901992798,-0.5089884996414185
1772740863853908500,8.871908447265625,-0.6630746722221375,-0.41919392347335815,-0.6789567470550537
1772740863872681200,8.89068115234375,-0.857782244682312,-0.3765873312950134,-0.9107732772827148
1772740863891454000,8.909453857421875,-1.0392038822174072,-0.08903098851442337,-1.041189193725586
1772740863910226400,8.928226318359375,-1.1077715158462524,0.22066856920719147,-1.0072871446609497
1772740863928999200,8.946999267578125,-0.9136747717857361,0.47081053256988525,-0.6972821354866028
1772740863947758800,8.9657587890625,-0.5334223508834839,0.5754181146621704,-0.15423893928527832
1772740863966544400,8.98454443359375,-0.23532891273498535,0.3787252902984619,0.3381039500236511
1772740863985317000,9.003317138671875,-0.0397050715982914,-0.01954711228609085,0.6227588057518005
1772740864004089900,9.02208984375,0.056961506605148315,-0.4211791753768921,0.6140542030334473
1772740864022862300,9.0408623046875,-0.016798298805952072,-0.7649334669113159,0.38758260011672974
1772740864041635000,9.059635009765625,-0.2530434727668762,-0.8831323981285095,0.1438545286655426
1772740864060394800,9.078394775390626,-0.5929799675941467,-0.8544226288795471,-0.15836215019226074
1772740864079180300,9.09718017578125,-0.930014967918396,-0.7087355256080627,-0.45080527663230896
1772740864097953000,9.115953125,-1.1480873823165894,-0.28755635023117065,-0.5607577562332153
1772740864116725800,9.134725830078125,-1.203369140625,0.25121092796325684,-0.45920443534851074
1772740864135498200,9.153498291015625,-1.0466867685317993,0.6778877377510071,-0.22616620361804962
1772740864154271000,9.17227099609375,-0.7873821258544922,0.8347227573394775,-0.0778830274939537
1772740864173030700,9.19103076171875,-0.5181511640548706,0.7189671993255615,-0.005650337319821119
1772740864191816200,9.209816162109375,-0.3202366828918457,0.48806697130203247,0.016492875292897224
1772740864210589000,9.2285888671875,-0.22998400032520294,0.3918585181236267,-0.0653606578707695
1772740864229361700,9.247361572265625,-0.20188501477241516,0.3701734244823456,-0.010995250195264816
1772740864248134100,9.266134033203125,-0.2718270421028137,0.1979145109653473,0.1375933438539505
1772740864266907000,9.284906982421875,-0.23838314414024353,0.15439164638519287,-0.03237490355968475
1772740864285679600,9.3036796875,-0.0975828468799591,0.24617144465446472,-0.15301723778247833
1772740864304452000,9.3224521484375,0.12812520563602448,0.35597124695777893,-0.20768806338310242
1772740864323224800,9.341224853515625,0.36314868927001953,0.28816720843315125,-0.18401773273944855
