time,seconds_elapsed,z,y,x
1772740683914867200,0.2488671875,2.183835983276367,1.1985466480255127,-0.17778289318084717
1772740683933639400,0.267639404296875,1.5101890563964844,1.1664254665374756,0.492767333984375
1772740683952412000,0.286411865234375,-0.21797561645507812,0.8339252471923828,0.9174565672874451
1772740683971184000,0.30518408203125,-2.3353185653686523,0.31615889072418213,1.2908787727355957
1772740683989956600,0.32395654296875,-3.6696524620056152,-0.2542957067489624,1.7130825519561768
1772740684008728800,0.342728759765625,-4.541077613830566,-1.0936675071716309,1.7636394500732422
1772740684027501300,0.361501220703125,-5.105542182922363,-1.6396806240081787,1.6932928562164307
1772740684046273500,0.3802734375,-5.963788032531738,-2.122410774230957,1.468646764755249
1772740684065045800,0.399045654296875,-6.7306976318359375,-2.4082789421081543,1.254880428314209
1772740684083805200,0.41780517578125,-7.255627632141113,-2.177109479904175,1.3586112260818481
1772740684102590500,0.436590576171875,-7.915164947509766,-1.7744883298873901,1.4991083145141602
1772740684121363000,0.455363037109375,-7.890230178833008,-1.3516908884048462,1.573012351989746
1772740684140135200,0.47413525390625,-7.6606574058532715,-0.938744068145752,1.3951503038406372
1772740684158907600,0.49290771484375,-6.451869964599609,-0.266176700592041,0.6679852604866028
1772740684177680000,0.511679931640625,-3.9861021041870117,0.8925771713256836,-0.8268412351608276
1772740684196439300,0.530439208984375,-0.7090272903442383,2.2066311836242676,-2.482179641723633
1772740684215224600,0.549224609375,5.164697647094727,1.971599817276001,-2.130826473236084
1772740684233997000,0.5679970703125,12.546653747558594,0.5897989273071289,-0.27009958028793335
1772740684252756200,0.586756103515625,17.686485290527344,-1.6700947284698486,0.6488017439842224
1772740684271541800,0.605541748046875,18.57022476196289,-4.169055938720703,0.23228901624679565
1772740684290314000,0.62431396484375,15.802778244018555,-4.0238447189331055,-0.7600887417793274
1772740684309073200,0.6430732421875,11.55543327331543,-1.8509966135025024,-1.0022441148757935
1772740684327858700,0.661858642578125,7.918750762939453,0.1744297742843628,-0.6404240131378174
1772740684346631000,0.680630859375,5.167505264282227,0.8708771467208862,-0.19533079862594604
1772740684365390300,0.699390380859375,2.595229148864746,0.4244593381881714,0.17804312705993652
1772740684384175600,0.718175537109375,-0.4662637710571289,-0.01017451286315918,0.36488470435142517
1772740684402948000,0.736947998046875,-3.245685577392578,-0.24707937240600586,0.6121211051940918
1772740684421707300,0.755707275390625,-5.499927043914795,-0.35780930519104004,0.7373008728027344
1772740684440492800,0.774492919921875,-6.690937519073486,-0.5773080587387085,0.90558922290802
1772740684459265000,0.79326513671875,-6.615222930908203,-0.8525545597076416,1.1289751529693604
1772740684478024400,0.8120244140625,-6.893372058868408,-1.0554797649383545,1.2789162397384644
1772740684496809700,0.830809814453125,-7.818298816680908,-1.232999324798584,1.3072820901870728
1772740684515582200,0.849582275390625,-8.408673286437988,-1.3764629364013672,1.2592027187347412
1772740684534354400,0.8683544921875,-8.648672103881836,-1.5605617761611938,1.2112431526184082
1772740684553127000,0.887126953125,-8.737975120544434,-1.4926002025604248,1.2081612348556519
1772740684571899100,0.905899169921875,-8.534791946411133,-1.5279557704925537,1.3100206851959229
1772740684590671600,0.924671630859375,-7.85468053817749,-1.4099003076553345,1.4972896575927734
1772740684609443800,0.94344384765625,-6.241949081420898,-1.0497093200683594,1.7582976818084717
1772740684628216300,0.96221630859375,-3.3410472869873047,-0.20219731330871582,1.5316908359527588
1772740684646975500,0.9809755859375,0.008251190185546875,1.0387299060821533,0.9232622385025024
1772740684665761000,0.999760986328125,4.821637153625488,1.3904848098754883,0.6310691833496094
1772740684684533200,1.018533203125,9.659305572509766,0.5783193111419678,1.389267921447754
1772740684703292700,1.037292724609375,12.492493629455566,0.041345834732055664,1.4062899351119995
1772740684722078000,1.056077880859375,12.407179832458496,-0.19551396369934082,0.8813385367393494
1772740684740850400,1.074850341796875,12.049946784973145,0.2951924800872803,0.39677858352661133
1772740684759622700,1.09362255859375,10.996009826660156,0.5613133907318115,0.005787506699562073
1772740684778395100,1.11239501953125,9.490053176879883,0.6676884889602661,0.12177951633930206
1772740684797167400,1.13116748046875,7.648154258728027,1.0986645221710205,0.9053727388381958
1772740684815926800,1.1499267578125,5.407517433166504,1.7438651323318481,1.7618275880813599
1772740684834712000,1.168712158203125,2.2449140548706055,1.606655240058899,2.1355373859405518
1772740684853484500,1.187484619140625,-1.4974002838134766,0.7728432416915894,1.9251128435134888
1772740684872243700,1.20624365234375,-4.813468933105469,-0.12460947036743164,1.480592966079712
1772740684891029200,1.225029296875,-6.6681318283081055,-0.5342272520065308,1.0694215297698975
1772740684909801500,1.243801513671875,-7.589542388916016,-1.154537558555603,0.8333176374435425
1772740684928561000,1.262560791015625,-8.725786209106445,-1.2857606410980225,0.20479023456573486
1772740684947346200,1.28134619140625,-9.755834579467773,-1.4702489376068115,-0.3928435444831848
1772740684966118700,1.30011865234375,-10.31533145904541,-1.5340194702148438,-0.6329013109207153
1772740684984891000,1.318890869140625,-9.851812362670898,-1.4609308242797852,-0.2952476143836975
1772740685003663400,1.337663330078125,-9.003515243530273,-1.4569191932678223,0.30319586396217346
1772740685022435600,1.356435546875,-8.509617805480957,-1.4147534370422363,0.804764449596405
1772740685041208000,1.3752080078125,-7.731039524078369,-1.3979039192199707,1.1441543102264404
1772740685059980300,1.393980224609375,-6.073731899261475,-1.7655413150787354,1.3202834129333496
1772740685078752800,1.412752685546875,-3.9510321617126465,-1.9770903587341309,0.8845297694206238
1772740685097512000,1.431511962890625,-1.8215627670288086,-0.44285058975219727,-0.4061349034309387
1772740685116297500,1.45029736328125,0.7657470703125,2.434190273284912,-2.3460545539855957
1772740685135070000,1.469070068359375,6.02504825592041,2.9623589515686035,-2.3039867877960205
1772740685153829000,1.4878291015625,13.489594459533691,2.5736019611358643,0.01795460656285286
1772740685172614400,1.506614501953125,18.98479461669922,1.2170164585113525,2.2170801162719727
1772740685191387000,1.525386962890625,20.233016967773438,-0.9361625909805298,2.248805046081543
1772740685210146000,1.54414599609375,16.05637550354004,-2.2246437072753906,0.4432975649833679
1772740685228931600,1.562931640625,9.23807430267334,-0.2811340093612671,-1.1289327144622803
1772740685247704000,1.5817041015625,4.873140335083008,1.467538833618164,-1.1572985649108887
1772740685266463200,1.600463134765625,3.34234619140625,1.6895756721496582,-0.2829829454421997
1772740685285248800,1.619248779296875,1.9167490005493164,0.6387430429458618,0.5246882438659668
1772740685304021000,1.63802099609375,-0.798314094543457,-0.14950406551361084,0.8651704788208008
1772740685322780400,1.656780517578125,-4.024370193481445,-0.7363313436508179,0.9742361307144165
1772740685341565700,1.675565673828125,-6.362773418426514,-1.0393558740615845,0.9805478453636169
1772740685360338200,1.694338134765625,-7.241324424743652,-1.21780264377594,1.0114802122116089
1772740685379097300,1.713097412109375,-7.533538818359375,-1.5781203508377075,0.9405354857444763
1772740685397883000,1.7318828125,-8.312174797058105,-1.6245520114898682,0.7619866728782654
1772740685416655000,1.750655029296875,-9.400955200195312,-1.585589051246643,0.7616671323776245
1772740685435414500,1.76941455078125,-10.286724090576172,-1.3369394540786743,0.7272933721542358
1772740685454200000,1.788199951171875,-10.936630249023438,-1.265852689743042,0.6375689506530762
1772740685472972300,1.80697216796875,-10.39403247833252,-0.7679767608642578,0.5439221858978271
1772740685491731500,1.8257314453125,-8.661506652832031,-0.22376394271850586,0.15608397126197815
1772740685510517000,1.84451708984375,-6.493514537811279,0.7193212509155273,-0.8775070905685425
1772740685529289500,1.86328955078125,-3.8612852096557617,1.853790521621704,-2.0548694133758545
1772740685548048600,1.882048583984375,0.6244573593139648,2.600039482116699,-2.634225845336914
1772740685566834200,1.900834228515625,7.358257293701172,2.4738850593566895,-1.4368536472320557
1772740685585606400,1.9196064453125,13.666328430175781,1.4849523305892944,0.05526971444487572
1772740685604365800,1.93836572265625,16.113311767578125,-0.1611340045928955,0.49778249859809875
1772740685623151000,1.957151123046875,15.900036811828613,-0.6115227937698364,0.9093799591064453
1772740685641923600,1.975923583984375,14.29699420928955,0.3466358184814453,1.6977263689041138
1772740685660682800,1.994682861328125,11.629571914672852,1.1244789361953735,2.4284887313842773
1772740685679468300,2.01346826171875,9.126344680786133,1.7207385301589966,3.206847667694092
1772740685698240500,2.032240478515625,6.195915222167969,2.0530049800872803,3.432130813598633
1772740685717000000,2.051,2.3904476165771484,1.7749139070510864,3.0568313598632812
1772740685735785500,2.069785400390625,-1.5692415237426758,1.0366125106811523,2.467292308807373
1772740685754557700,2.0885576171875,-4.795454978942871,0.037033796310424805,2.068584442138672
1772740685773317000,2.107317138671875,-6.824079513549805,-1.0754234790802002,1.6684240102767944
1772740685792102400,2.126102294921875,-8.043598175048828,-2.0747342109680176,1.2141859531402588
1772740685810875000,2.144875,-9.34139633178711,-2.3466906547546387,0.7377681136131287
1772740685829634000,2.163634033203125,-10.118717193603516,-2.135136127471924,0.3258405923843384
1772740685848419600,2.182419677734375,-10.928685188293457,-1.7332156896591187,-0.13850831985473633
1772740685867191800,2.20119189453125,-11.070055961608887,-1.2594910860061646,-0.22933688759803772
1772740685885964300,2.21996435546875,-9.842890739440918,-0.8823543787002563,0.1176583468914032
1772740685904736800,2.23873681640625,-8.426547050476074,-0.7842823266983032,0.3820275366306305
1772740685923509000,2.257509033203125,-6.879739284515381,-1.0015215873718262,0.6127812266349792
1772740685942268400,2.276268310546875,-5.3993096351623535,-1.355950117111206,0.6745545864105225
1772740685961053700,2.2950537109375,-4.005014419555664,-1.42617928981781,0.6500787734985352
1772740685979826200,2.313826171875,-2.2486958503723145,-0.729310154914856,0.24841603636741638
1772740685998585300,2.33258544921875,0.5722112655639648,0.8282302618026733,-0.7644267082214355
1772740686017371000,2.351370849609375,4.604884147644043,1.9324167966842651,-1.9267470836639404
1772740686036143000,2.37014306640625,9.457640647888184,1.925910472869873,-1.6957703828811646
1772740686054902500,2.388902587890625,14.543543815612793,1.1140000820159912,-0.2998160719871521
1772740686073688000,2.40768798828125,16.859329223632812,0.453411340713501,0.3632434606552124
1772740686092460300,2.426460205078125,17.315563201904297,-0.573091983795166,0.30501940846443176
1772740686111219700,2.4452197265625,14.74347972869873,-0.9779300689697266,-0.9947746992111206
1772740686130005000,2.4640048828125,9.945390701293945,-0.10722243785858154,-1.9233384132385254
1772740686148777500,2.482777587890625,6.051083564758301,0.9169224500656128,-2.0430076122283936
1772740686167536600,2.50153662109375,4.235673904418945,1.2750886678695679,-1.3076021671295166
1772740686186322200,2.520322265625,2.193575859069824,0.9636240005493164,-0.3667680025100708
1772740686205094400,2.539094482421875,-0.534912109375,0.5619828701019287,0.5549275875091553
1772740686223853800,2.557853759765625,-2.8382043838500977,0.33933889865875244,1.253202199935913
1772740686242639400,2.576639404296875,-4.850163459777832,0.23086190223693848,1.6340949535369873
1772740686259223800,2.593223876953125,-6.547698497772217,0.15988612174987793,1.8559021949768066
1772740686273303300,2.60730322265625,-7.515302658081055,-0.02747786045074463,2.0462775230407715
1772740686287382500,2.621382568359375,-8.175178527832031,-0.369722843170166,2.205315113067627
1772740686301461800,2.635461669921875,-8.829854011535645,-0.872424840927124,2.1031336784362793
1772740686315541000,2.649541015625,-9.135602951049805,-1.2415885925292969,1.887911081314087
1772740686329620200,2.6636201171875,-9.291707992553711,-1.656790018081665,1.870772361755371
1772740686343699500,2.677699462890625,-10.051939964294434,-1.8843014240264893,1.6076796054840088
1772740686355273500,2.6892734375,-10.36608600616455,-2.070066213607788,1.5311410427093506
1772740686374046000,2.7080458984375,-10.67387866973877,-1.8315670490264893,1.6666245460510254
1772740686392805000,2.72680517578125,-9.089383125305176,-1.568523645401001,1.783541202545166
1772740686411590700,2.745590576171875,-7.122655391693115,-1.4580669403076172,1.8983299732208252
1772740686430363100,2.764363037109375,-5.153556823730469,-1.0984183549880981,1.6702288389205933
1772740686449122300,2.783122314453125,-2.5685625076293945,0.17466330528259277,1.1605427265167236
1772740686467907800,2.801907958984375,1.9188146591186523,1.358729362487793,0.7199236154556274
1772740686486680000,2.82068017578125,7.560887336730957,1.5035748481750488,0.6908320188522339
1772740686505444600,2.839444580078125,13.076798439025879,0.48133647441864014,0.6651895046234131
1772740686524230100,2.858230224609375,14.610262870788574,-0.3051072359085083,-0.23966562747955322
1772740686543002400,2.87700244140625,13.933629035949707,-0.11856198310852051,-0.8291791677474976
1772740686561774800,2.89577490234375,13.074159622192383,-0.027001261711120605,-0.5860186815261841
1772740686580547000,2.914547119140625,10.859190940856934,0.17555665969848633,-0.3093630075454712
1772740686599319600,2.933319580078125,8.030158042907715,1.0268586874008179,0.22195719182491302
1772740686618078700,2.95207861328125,4.718724250793457,1.6828759908676147,0.8088141679763794
1772740686636864300,2.9708642578125,1.4360694885253906,1.7597496509552002,1.1440550088882446
1772740686655636700,2.98963671875,-0.9964427947998047,1.2738856077194214,1.607512354850769
1772740686674396000,3.00839599609375,-2.8902416229248047,0.5404415130615234,1.6845104694366455
1772740686693181400,3.027181396484375,-5.203502655029297,-0.6652449369430542,1.0438554286956787
1772740686711954000,3.045953857421875,-7.236900329589844,-1.6497992277145386,0.20717637240886688
1772740686730713000,3.064713134765625,-7.887716293334961,-2.138432264328003,-0.13467887043952942
1772740686749498600,3.08349853515625,-8.734835624694824,-1.9152336120605469,-0.4348756670951843
1772740686768270800,3.102270751953125,-9.175902366638184,-1.0516849756240845,-0.3898819386959076
1772740686787030300,3.1210302734375,-9.982036590576172,-0.5056421756744385,-0.3747776448726654
1772740686805815800,3.13981591796875,-10.206380844116211,-0.4507143497467041,-0.5696444511413574
1772740686824588000,3.158588134765625,-8.737351417541504,-0.67706298828125,-0.6886590719223022
1772740686843360500,3.177360595703125,-8.274980545043945,-0.827307939529419,-0.5988434553146362
1772740686862132700,3.1961328125,-7.240393161773682,-0.867403507232666,-0.5534155368804932
1772740686880905200,3.2149052734375,-5.782544136047363,-1.183806300163269,-0.5399675369262695
1772740686899664600,3.23366455078125,-3.71403169631958,-1.2289592027664185,-0.6866263151168823
1772740686918450000,3.252449951171875,-1.5445308685302734,-0.4290962219238281,-1.6098823547363281
1772740686937222400,3.271222412109375,0.5322513580322266,1.7272045612335205,-2.5904147624969482
1772740686955981600,3.289981689453125,5.677818298339844,3.381338596343994,-0.6444542407989502
1772740686974767000,3.30876708984375,14.954209327697754,3.3415567874908447,2.916860580444336
1772740686993539600,3.32753955078125,19.820960998535156,0.3574206829071045,3.629185438156128
1772740687012298800,3.346298828125,16.55762481689453,-1.9478387832641602,1.433152198791504
1772740687031084300,3.365084228515625,11.713239669799805,-1.5408141613006592,-0.5718375444412231
1772740687049856800,3.383856689453125,8.123144149780273,-0.04662322998046875,-1.6307168006896973
1772740687068616000,3.402615966796875,5.877237319946289,0.7080848217010498,-1.9446415901184082
1772740687087401500,3.4214013671875,5.960426330566406,0.5451713800430298,-1.4317232370376587
1772740687106174000,3.440174072265625,5.807620048522949,-0.052978515625,-0.7359268069267273
1772740687124933000,3.45893310546875,3.867926597595215,-0.5475653409957886,-0.41261544823646545
1772740687143718700,3.47771875,1.3806753158569336,-0.7925488352775574,-0.30898529291152954
1772740687162491000,3.496490966796875,-0.7356729507446289,-0.6877932548522949,-0.238106369972229
1772740687181250300,3.515250244140625,-2.689436435699463,-0.6220303773880005,-0.13879260420799255
1772740687200035800,3.534035888671875,-4.973377227783203,-0.651260256767273,-0.13631850481033325
1772740687218808000,3.55280810546875,-6.916364669799805,-0.7688479423522949,-0.1548381745815277
1772740687237567500,3.5715673828125,-8.140790939331055,-0.7568212747573853,-0.08443748950958252
1772740687256353000,3.59035302734375,-9.01049518585205,-0.9260885715484619,-0.0030876100063323975
1772740687275125200,3.609125244140625,-10.670865058898926,-1.2792555093765259,-0.07516840100288391
1772740687293884700,3.627884765625,-11.210227966308594,-1.4661383628845215,-0.11948788911104202
1772740687312670000,3.646669921875,-10.244393348693848,-1.6788502931594849,-0.13515470921993256
1772740687331442400,3.6654423828125,-9.360893249511719,-1.98447585105896,-0.0933317169547081
1772740687350201900,3.684201904296875,-7.840792179107666,-1.7958321571350098,-0.03863811492919922
1772740687368987100,3.702987060546875,-6.4192938804626465,-1.1225180625915527,-0.1137893795967102
1772740687387759600,3.721759521484375,-4.2951979637146,0.7361531257629395,-0.17036351561546326
1772740687406519000,3.74051904296875,0.9120445251464844,2.6038849353790283,0.2400568276643753
1772740687425304300,3.75930419921875,7.601142883300781,2.851386070251465,0.9677637815475464
1772740687444076800,3.778076904296875,12.886154174804688,1.2708237171173096,1.1789087057113647
1772740687462836200,3.796836181640625,14.431280136108398,-0.022214651107788086,0.5833367109298706
1772740687481621500,3.81562158203125,16.82802391052246,-1.244346022605896,0.6831508874893188
1772740687500394000,3.83439404296875,16.9375057220459,-1.569502592086792,0.9622379541397095
1772740687519153200,3.853153076171875,14.236183166503906,0.02862095832824707,1.4572136402130127
1772740687537938700,3.871938720703125,10.346936225891113,1.7583339214324951,1.9497064352035522
1772740687556711200,3.890711181640625,5.877886772155762,2.304567337036133,1.9273717403411865
1772740687575470300,3.90947021484375,2.082839012145996,1.84598708152771,1.7448375225067139
1772740687594256000,3.928255859375,-1.3253049850463867,0.7609748840332031,1.617020606994629
1772740687613028400,3.9470283203125,-4.923388957977295,-0.07283711433410645,1.4122542142868042
1772740687631787500,3.96578759765625,-8.166306495666504,-0.40790867805480957,1.2636011838912964
1772740687650573000,3.984572998046875,-9.962353706359863,-0.6982195377349854,1.2955929040908813
1772740687669345500,4.003345458984375,-11.21249008178711,-1.3173208236694336,1.0796452760696411
1772740687688104700,4.022104736328125,-12.117557525634766,-1.9769834280014038,0.9755361080169678
1772740687706890200,4.04089013671875,-12.289068222045898,-2.318148374557495,0.6492211818695068
1772740687725662700,4.059662841796875,-11.957866668701172,-2.30543851852417,0.5389166474342346
1772740687744435000,4.07843505859375,-11.449370384216309,-1.973357915878296,0.5635960698127747
1772740687763207400,4.09720751953125,-10.204988479614258,-1.5012856721878052,0.7945735454559326
1772740687781980000,4.11597998046875,-8.53846263885498,-1.3129503726959229,0.9401389360427856
1772740687800739000,4.134739013671875,-6.504451751708984,-1.8487284183502197,0.7190484404563904
1772740687819524600,4.153524658203125,-4.581335067749023,-2.399191379547119,0.2852287292480469
1772740687838297000,4.172297119140625,-2.8578104972839355,-1.8133419752120972,-0.6456739902496338
1772740687857056300,4.19105615234375,-1.325418472290039,0.8179256916046143,-2.3038833141326904
1772740687875841800,4.209841796875,3.7865676879882812,3.089693307876587,-2.837327718734741
1772740687894614300,4.2286142578125,14.852622032165527,2.4557530879974365,-1.1634132862091064
1772740687913373400,4.24737353515625,22.769794464111328,-0.6361366510391235,-0.29516294598579407
1772740687932159000,4.266158935546875,24.08076286315918,-3.5696866512298584,-0.637223482131958
1772740687950931500,4.284931396484375,20.888538360595703,-3.4024856090545654,-1.335601568222046
1772740687969690600,4.303690673828125,14.393328666687012,-1.7312744855880737,-2.2202556133270264
1772740687988476200,4.32247607421875,7.782438278198242,0.31569957733154297,-2.6292593479156494
1772740688007248400,4.341248291015625,3.5025768280029297,1.5813844203948975,-2.21244215965271
1772740688026007800,4.3600078125,1.5536327362060547,1.22420334815979,-1.4384146928787231
1772740688044793300,4.37879345703125,0.7888898849487305,0.10965991020202637,-0.49902698397636414
1772740688063565800,4.39756591796875,-0.11666107177734375,-0.8740944862365723,0.412139892578125
1772740688082325000,4.416324951171875,-2.1567769050598145,-1.2659472227096558,1.0061020851135254
1772740688101110500,4.435110595703125,-5.141665458679199,-1.3306479454040527,1.3118823766708374
1772740688119883000,4.453883056640625,-7.346582412719727,-1.2979118824005127,1.485304594039917
1772740688138642200,4.47264208984375,-9.141695022583008,-1.457869052886963,1.490403175354004
1772740688157427700,4.491427734375,-10.512761116027832,-1.80471670627594,1.3394978046417236
1772740688176200200,4.5102001953125,-11.328922271728516,-2.3064205646514893,1.1881754398345947
1772740688194959400,4.52895947265625,-11.632977485656738,-2.596299171447754,1.0134035348892212
1772740688213745000,4.547744873046875,-11.347055435180664,-2.688986301422119,0.933930516242981
1772740688232517400,4.566517333984375,-10.819252014160156,-2.6202468872070312,0.9005482196807861
1772740688251289600,4.58528955078125,-9.801507949829102,-2.3629887104034424,0.8484281301498413
1772740688270062000,4.60406201171875,-8.344747543334961,-1.639635443687439,0.8026559948921204
1772740688288834600,4.62283447265625,-6.495100021362305,-0.5790565013885498,0.4160333275794983
1772740688307593700,4.64159375,-3.014101028442383,0.39463376998901367,0.21529807150363922
1772740688326379300,4.660379150390625,3.393980026245117,1.080047607421875,0.8195886015892029
1772740688345151700,4.67915185546875,10.7988920211792,1.0831701755523682,1.645691990852356
1772740688363911000,4.697910888671875,15.376874923706055,-0.21531128883361816,1.5382945537567139
1772740688382696400,4.716696533203125,16.873640060424805,-1.5152994394302368,0.7685198187828064
1772740688401469000,4.735468994140625,17.62662696838379,-1.7001844644546509,0.8504492044448853
1772740688420241200,4.7542412109375,16.276508331298828,-1.172387719154358,0.9348927736282349
1772740688439013600,4.773013671875,12.896199226379395,-0.0839996337890625,0.9426500797271729
1772740688457786000,4.7917861328125,9.693207740783691,1.0559930801391602,1.3484630584716797
1772740688476545300,4.810545166015625,6.161715507507324,1.525463581085205,1.548551082611084
1772740688495330800,4.829330810546875,2.516293525695801,1.3018455505371094,1.3677988052368164
1772740688514103300,4.848103271484375,-1.208648681640625,0.6894158124923706,1.0184649229049683
1772740688532862500,4.866862548828125,-4.622931003570557,0.03775346279144287,0.765398383140564
1772740688551648000,4.88564794921875,-7.497321605682373,-0.5588040351867676,0.5655637979507446
1772740688570420500,4.90442041015625,-9.354606628417969,-1.2608051300048828,0.4859994053840637
1772740688589179600,4.9231796875,-10.338092803955078,-2.0219438076019287,0.3852505385875702
1772740688607965200,4.941965087890625,-10.986246109008789,-2.334996223449707,0.018995776772499084
1772740688626737700,4.960737548828125,-11.31314468383789,-2.1129865646362305,-0.1902688592672348
1772740688645510000,4.979510009765625,-11.302167892456055,-1.6676180362701416,-0.20069459080696106
1772740688664282400,4.998282470703125,-10.622933387756348,-1.1891558170318604,-0.031505197286605835
1772740688683054800,5.017054931640625,-9.494729042053223,-1.0294042825698853,0.13982684910297394
1772740688701814000,5.03581396484375,-8.02935791015625,-1.3230476379394531,0.04313744604587555
1772740688720599600,5.054599609375,-6.299658298492432,-1.675397515296936,-0.19204632937908173
1772740688739372000,5.0733720703125,-5.178204536437988,-1.8635339736938477,-0.5908828973770142
1772740688758131200,5.092131103515625,-3.761697769165039,-1.6950523853302002,-1.4549105167388916
1772740688776916700,5.110916748046875,-1.9390625953674316,-0.09446215629577637,-2.565556049346924
1772740688795689200,5.129689208984375,2.86773681640625,1.9086241722106934,-2.7185680866241455
1772740688814448400,5.148448486328125,11.494667053222656,2.041738986968994,-1.0780162811279297
1772740688833234000,5.16723388671875,20.331295013427734,-0.5510866641998291,1.1186549663543701
1772740688852006400,5.18600634765625,23.484338760375977,-3.2193331718444824,1.4606825113296509
1772740688870765600,5.204765625,20.083354949951172,-3.8784356117248535,0.32159423828125
1772740688889551000,5.223551025390625,14.876185417175293,-2.033522367477417,-0.7584736347198486
1772740688908323600,5.242323486328125,9.477781295776367,-0.12120258808135986,-1.2411624193191528
1772740688927082800,5.261082763671875,5.533037185668945,1.2494651079177856,-1.029646873474121
1772740688945868300,5.279868408203125,3.5598154067993164,1.6334965229034424,-0.17307724058628082
1772740688964640800,5.298640869140625,2.0570831298828125,0.8795478343963623,0.3632642924785614
1772740688983400000,5.31739990234375,0.30747413635253906,-0.02335071563720703,0.6533161997795105
1772740689002185500,5.336185546875,-1.9574480056762695,-0.458423376083374,0.8672094941139221
1772740689020958000,5.3549580078125,-4.6832051277160645,-0.6916788816452026,0.8311671614646912
1772740689039717000,5.373717041015625,-6.759923458099365,-1.092863917350769,0.8383897542953491
1772740689058502700,5.392502685546875,-8.237298011779785,-1.4427534341812134,0.8940699696540833
1772740689077275100,5.411275146484375,-9.483866691589355,-1.753288745880127,1.0522297620773315
1772740689096034300,5.430034423828125,-10.415462493896484,-2.1240124702453613,1.0934193134307861
1772740689114819800,5.44881982421875,-10.94499683380127,-2.5609164237976074,1.0250824689865112
1772740689133592300,5.46759228515625,-11.199939727783203,-2.717045545578003,0.893231987953186
1772740689152364500,5.486364501953125,-11.410259246826172,-2.4611759185791016,0.7744102478027344
1772740689171137000,5.505136962890625,-10.53669548034668,-1.7032666206359863,0.8945256471633911
1772740689189909500,5.523909423828125,-9.549569129943848,-0.7990670204162598,0.9064751863479614
1772740689208668700,5.542668701171875,-7.64907693862915,0.5709404945373535,0.7991490364074707
1772740689227454200,5.5614541015625,-3.8088650703430176,1.679410457611084,1.072702407836914
1772740689246226700,5.580226806640625,3.048656463623047,1.9721767902374268,2.0305655002593994
1772740689264985900,5.59898583984375,11.65073299407959,1.1045076847076416,3.203477382659912
1772740689283771400,5.617771484375,17.182207107543945,-1.6163718700408936,2.6664860248565674
1772740689302544000,5.6365439453125,16.880937576293945,-2.8402628898620605,0.8106793165206909
1772740689321303000,5.655302978515625,16.44675064086914,-1.6695234775543213,0.28402531147003174
1772740689340088600,5.674088623046875,15.267304420471191,-0.21033787727355957,0.28155413269996643
1772740689358861000,5.692861083984375,12.526752471923828,1.445403814315796,0.40898504853248596
1772740689377620200,5.7116201171875,9.76148509979248,2.9726784229278564,0.7278807759284973
1772740689396405800,5.73040576171875,6.357732772827148,3.487743854522705,0.6743093132972717
1772740689415178200,5.74917822265625,2.6484594345092773,2.811924695968628,0.4020298719406128
1772740689433937400,5.7679375,-1.2221393585205078,1.686513900756836,0.10678160190582275
1772740689452723000,5.786722900390625,-4.637341499328613,0.6603312492370605,0.03794384002685547
1772740689471495400,5.805495361328125,-7.1913743019104,-0.3946359157562256,0.17099657654762268
1772740689490254600,5.824254638671875,-8.653953552246094,-1.8827584981918335,0.4252654016017914
1772740689509040000,5.8430400390625,-9.444125175476074,-3.6027185916900635,0.5682792663574219
1772740689527812600,5.8618125,-10.239897727966309,-4.290467262268066,0.4592232406139374
1772740689546571800,5.88057177734375,-10.805357933044434,-3.996307373046875,0.5457555651664734
1772740689565357300,5.899357421875,-10.289518356323242,-3.5650625228881836,1.0282419919967651
1772740689584129800,5.9181298828125,-10.06244945526123,-3.35361385345459,1.286241888999939
1772740689602902000,5.936902099609375,-10.298184394836426,-3.2782981395721436,1.0221283435821533
1772740689621674500,5.955674560546875,-8.718977928161621,-3.4157795906066895,0.8990066051483154
1772740689640447000,5.974447021484375,-7.421493053436279,-3.514514923095703,0.6043874025344849
1772740689659206100,5.9932060546875,-6.504619121551514,-3.1394288539886475,0.1417675018310547
1772740689677991700,6.01199169921875,-4.627376079559326,-1.677987813949585,-0.35383668541908264
1772740689696764200,6.03076416015625,-1.4192848205566406,0.8347444534301758,-1.1543468236923218
1772740689715523300,6.0495234375,3.740694999694824,3.6276323795318604,-1.865506649017334
1772740689734308900,6.068308837890625,12.203897476196289,4.90278959274292,-1.7231876850128174
1772740689753081300,6.087081298828125,19.063426971435547,3.6530911922454834,-1.1410242319107056
1772740689771840500,6.105840576171875,22.548742294311523,1.6075527667999268,-0.3694635033607483
1772740689790626000,6.1246259765625,21.261524200439453,0.5389435291290283,-0.6772744655609131
1772740689809398500,6.1433984375,16.138507843017578,1.2054221630096436,-1.791059136390686
1772740689828157700,6.16215771484375,9.789617538452148,2.208029270172119,-2.253650188446045
1772740689846943200,6.180943115234375,4.535914421081543,1.915830373764038,-2.250591516494751
1772740689865715700,6.1997158203125,2.1842918395996094,0.33698320388793945,-1.5120396614074707
1772740689884475000,6.218474853515625,0.4847116470336914,-1.196474552154541,-0.5856295228004456
1772740689903260400,6.237260498046875,-0.9747657775878906,-1.958876132965088,0.4082376956939697
1772740689922033000,6.256032958984375,-2.049701690673828,-2.3321151733398438,1.1133707761764526
1772740689940792000,6.2747919921875,-4.373482704162598,-2.4861083030700684,1.330824375152588
1772740689959577600,6.29357763671875,-6.555992126464844,-2.5179476737976074,1.4211030006408691
1772740689978350000,6.31235009765625,-8.158507347106934,-2.787416934967041,1.5865671634674072
1772740689997109200,6.331109130859375,-9.404300689697266,-3.1345386505126953,1.5519278049468994
1772740690015894800,6.349894775390625,-10.331647872924805,-3.2315146923065186,1.3716423511505127
1772740690034667300,6.368667236328125,-11.00659465789795,-3.292734146118164,1.307035207748413
1772740690053439500,6.387439453125,-11.340110778808594,-3.19834566116333,1.2197163105010986
1772740690072212000,6.4062119140625,-11.169414520263672,-3.069627285003662,1.1502795219421387
1772740690090984400,6.424984375,-10.112624168395996,-3.0302274227142334,1.1808152198791504
1772740690109743600,6.44374365234375,-8.933703422546387,-2.7370452880859375,1.143068790435791
1772740690128529200,6.462529052734375,-7.627837181091309,-1.4591188430786133,0.9582592844963074
1772740690147301600,6.481301513671875,-5.76192569732666,0.7689411640167236,0.6962542533874512
1772740690166060800,6.500060791015625,-2.717391014099121,3.079841136932373,0.09211191534996033
1772740690184846300,6.518846435546875,2.432528495788574,4.108494758605957,-0.49513205885887146
1772740690203618800,6.537618896484375,9.764328002929688,2.9939539432525635,-0.38950759172439575
1772740690222378000,6.5563779296875,15.693066596984863,0.6857399940490723,-0.7606343030929565
1772740690241163500,6.57516357421875,17.028179168701172,-1.0975297689437866,-2.260430335998535
1772740690259936000,6.59393603515625,16.240787506103516,-1.2538642883300781,-2.4321465492248535
1772740690278708500,6.61270849609375,15.748236656188965,0.140761137008667,-1.4266289472579956
1772740690297480700,6.631480712890625,14.15341567993164,1.236135721206665,-0.11807788908481598
1772740690316253200,6.650253173828125,11.817038536071777,2.0367257595062256,1.1359367370605469
1772740690335012600,6.6690126953125,8.355637550354004,2.3933827877044678,1.5742696523666382
1772740690353798000,6.6877978515625,4.641294479370117,1.5764939785003662,1.3242379426956177
1772740690372570400,6.7065703125,1.8072071075439453,0.2700016498565674,1.1420550346374512
1772740690391329800,6.725329833984375,-1.4685773849487305,-0.5410928726196289,1.0838056802749634
1772740690410115000,6.744114990234375,-4.997927188873291,-0.8281490802764893,1.1432992219924927
1772740690428887600,6.762887451171875,-8.193307876586914,-1.0138498544692993,1.1836611032485962
1772740690447647000,6.78164697265625,-9.975479125976562,-1.3952782154083252,1.2363518476486206
1772740690466432500,6.8004326171875,-10.75512409210205,-1.7160122394561768,1.019711971282959
1772740690485204700,6.819204833984375,-11.286351203918457,-2.1759862899780273,0.6480675935745239
1772740690503964200,6.837964111328125,-11.32481575012207,-2.3559329509735107,0.6421372890472412
1772740690522749700,6.856749755859375,-12.235288619995117,-2.052025318145752,0.573397159576416
1772740690541522000,6.87552197265625,-11.276182174682617,-1.784294605255127,0.8541746139526367
1772740690560294400,6.89429443359375,-10.119990348815918,-2.1154532432556152,0.6821277141571045
1772740690579067000,6.91306689453125,-8.931083679199219,-2.8802599906921387,0.35393959283828735
1772740690597839400,6.93183935546875,-7.723236560821533,-3.198803663253784,0.14432895183563232
1772740690616598500,6.9505986328125,-5.968408107757568,-3.200875759124756,-0.006742000579833984
1772740690635384000,6.969384033203125,-4.151944160461426,-2.3108344078063965,-0.8797060251235962
1772740690654156500,6.988156494140625,-2.2515926361083984,-0.2983212471008301,-2.872136116027832
1772740690672915700,7.006915771484375,1.3720436096191406,2.025632619857788,-4.163451194763184
1772740690691701200,7.025701171875,9.8043851852417,1.0427584648132324,-3.0842483043670654
1772740690710473700,7.0444736328125,19.848276138305664,-2.6298623085021973,-1.925227165222168
1772740690729233000,7.06323291015625,21.040786743164062,-5.308430194854736,-2.6988725662231445
1772740690748018400,7.082018310546875,17.142362594604492,-3.7628464698791504,-3.9567372798919678
1772740690766791000,7.100791015625,13.527556419372559,-1.0068989992141724,-4.331543922424316
1772740690785550000,7.119550048828125,10.260193824768066,1.0761606693267822,-3.9401793479919434
1772740690804335600,7.138335693359375,8.26374340057373,2.004178285598755,-2.8190670013427734
1772740690823108000,7.157108154296875,6.734746932983398,1.636637568473816,-1.641040325164795
1772740690841867500,7.175867431640625,4.330380439758301,0.8756626844406128,-0.7078361511230469
1772740690860652800,7.19465283203125,1.9374094009399414,0.2247028350830078,0.1468258500099182
1772740690879425300,7.21342529296875,-0.1302051544189453,-0.6027950048446655,0.7261773943901062
1772740690898184700,7.232184814453125,-2.830092430114746,-1.3638659715652466,0.9732614755630493
1772740690916970200,7.25097021484375,-5.7727556228637695,-1.4639201164245605,1.191617727279663
1772740690935742500,7.269742431640625,-7.597753524780273,-1.588669776916504,1.3868887424468994
1772740690954502000,7.288501953125,-8.641945838928223,-2.1635093688964844,1.2646591663360596
1772740690973287400,7.307287353515625,-9.435822486877441,-2.9593472480773926,1.051208257675171
1772740690992059600,7.3260595703125,-10.327150344848633,-3.1347601413726807,0.9174178242683411
1772740691010819000,7.344819091796875,-11.138426780700684,-2.8174262046813965,0.8990544080734253
1772740691029604600,7.3636044921875,-11.092637062072754,-2.217827320098877,1.1211296319961548
1772740691048377000,7.382377197265625,-10.843859672546387,-1.7843115329742432,1.3233733177185059
1772740691067149300,7.4011494140625,-10.362048149108887,-1.6150572299957275,1.2260518074035645
1772740691085921800,7.419921875,-9.093371391296387,-1.455536127090454,0.9364757537841797
1772740691104694300,7.4386943359375,-7.428781032562256,-0.8093663454055786,0.31532976031303406
1772740691123453400,7.457453369140625,-4.7222819328308105,0.6949629783630371,-0.4634244740009308
1772740691142239000,7.476239013671875,-0.6808986663818359,2.197821855545044,-0.9084682464599609
1772740691161011500,7.495011474609375,5.248945236206055,3.0053677558898926,-0.5962074995040894
1772740691179771000,7.51377099609375,13.612052917480469,1.783618688583374,0.1279233694076538
1772740691198556200,7.53255615234375,18.36219024658203,-1.9846246242523193,-0.4907163381576538
1772740691217328600,7.55132861328125,18.51224708557129,-3.9536375999450684,-1.4782788753509521
1772740691236088000,7.570088134765625,17.872119903564453,-2.3460774421691895,-0.7277023792266846
1772740691254873600,7.58887353515625,15.773592948913574,-0.48638463020324707,0.4786822497844696
1772740691273645800,7.607645751953125,12.324118614196777,1.3884105682373047,1.5210504531860352
1772740691292405200,7.6264052734375,7.992499351501465,2.557218551635742,1.9966044425964355
1772740691311190800,7.645190673828125,4.111789703369141,2.5154693126678467,1.6877856254577637
1772740691329963300,7.66396337890625,0.9068727493286133,1.6569688320159912,1.3225245475769043
1772740691348722400,7.682722412109375,-2.075676441192627,1.0122729539871216,1.1917040348052979
1772740691367508000,7.701508056640625,-5.164985656738281,0.5607192516326904,1.197680115699768
1772740691386280400,7.720280517578125,-7.72702693939209,0.20762288570404053,1.107674241065979
1772740691405039600,7.73903955078125,-9.398658752441406,-0.3607441186904907,0.9894249439239502
1772740691423825200,7.7578251953125,-10.046667098999023,-0.848277747631073,0.9510946869850159
1772740691442597600,7.77659765625,-10.907086372375488,-1.2652029991149902,0.8233083486557007
1772740691461357000,7.795357177734375,-11.373909950256348,-1.4360628128051758,0.6362191438674927
1772740691480142600,7.814142578125,-10.948799133300781,-1.3769828081130981,0.7743128538131714
1772740691498914800,7.832914794921875,-9.9544038772583,-1.2052196264266968,0.8979696035385132
1772740691517674200,7.85167431640625,-8.828500747680664,-1.4332165718078613,0.7281570434570312
1772740691536459800,7.870459716796875,-7.476133346557617,-1.692107915878296,0.4129291772842407
1772740691555232000,7.88923193359375,-6.157818794250488,-1.8744027614593506,0.12556427717208862
1772740691573991400,7.907991455078125,-4.435534477233887,-1.8152871131896973,-0.35581427812576294
1772740691592777000,7.92677685546875,-3.399043083190918,-0.6066910028457642,-1.549576997756958
1772740691611549400,7.945549560546875,-2.5372366905212402,1.8936667442321777,-2.8125803470611572
1772740691630308600,7.96430859375,1.273371696472168,3.7038066387176514,-2.806987762451172
1772740691649094100,7.98309423828125,9.457266807556152,3.0809059143066406,-1.8956546783447266
1772740691667866600,8.00186669921875,17.51220703125,-0.47513604164123535,-1.6553030014038086
1772740691686625800,8.020625732421875,20.375736236572266,-5.293359279632568,-2.708284378051758
1772740691705411300,8.039411376953124,17.879154205322266,-7.073328018188477,-4.2368059158325195
1772740691724183800,8.058183837890626,14.070974349975586,-4.929173469543457,-4.1452531814575195
1772740691742943200,8.076943115234375,9.454719543457031,-1.4491750001907349,-3.4619293212890625
1772740691761728800,8.095728759765626,5.063066482543945,1.0817561149597168,-2.573758125305176
1772740691780501000,8.1145009765625,3.363978385925293,1.6824467182159424,-1.4772840738296509
1772740691799260400,8.133260498046875,2.615062713623047,0.9788315892219543,-0.7264229655265808
1772740691818046000,8.1520458984375,1.0624828338623047,0.2101116180419922,-0.2092953324317932
1772740691836818400,8.170818359375,-1.2415781021118164,0.25956910848617554,0.19371730089187622
1772740691855577600,8.18957763671875,-3.3610477447509766,0.08688783645629883,0.3753749132156372
1772740691874363100,8.208363037109375,-5.629100799560547,-0.30606088042259216,0.024809151887893677
1772740691893135600,8.227135498046875,-7.543917655944824,-0.8941115736961365,-0.3033715784549713
1772740691911895000,8.24589501953125,-8.890310287475586,-1.4989335536956787,-0.6033804416656494
1772740691930680300,8.264680419921875,-9.53959846496582,-1.957926869392395,-0.6885722875595093
1772740691949452800,8.283452880859375,-9.719185829162598,-2.0975613594055176,-0.5148200988769531
1772740691968225300,8.302225341796875,-9.801039695739746,-1.7869133949279785,-0.04084813594818115
1772740691986997800,8.320997802734375,-9.410025596618652,-1.0422894954681396,0.6362870931625366
1772740692005770000,8.33977001953125,-8.481389045715332,-0.5100536346435547,1.2834537029266357
1772740692024529400,8.358529296875,-7.352590560913086,-0.23026561737060547,1.567873477935791
1772740692043315000,8.37731494140625,-5.820000171661377,0.06313776969909668,1.487644076347351
1772740692062087400,8.39608740234375,-3.452007293701172,0.8916143178939819,1.1446715593338013
1772740692080846600,8.4148466796875,-0.5280094146728516,1.7595146894454956,0.4645324945449829
1772740692099632000,8.433632080078125,2.8105945587158203,1.9630206823349,0.3004222810268402
1772740692118404600,8.452404541015625,7.673332214355469,1.3545334339141846,0.4009953737258911
1772740692137164000,8.4711640625,11.085968017578125,-0.6489067077636719,-0.15407982468605042
1772740692155949300,8.48994921875,12.44165325164795,-2.372246265411377,-0.6400038599967957
1772740692174721800,8.5087216796875,13.372368812561035,-2.7692718505859375,-0.2256963700056076
1772740692193494300,8.527494384765625,12.48064136505127,-2.520134925842285,0.351229190826416
1772740692212266800,8.546266845703125,10.412209510803223,-1.2479139566421509,1.1514109373092651
1772740692231039000,8.5650390625,8.35655689239502,0.3311377763748169,2.070981740951538
1772740692249798400,8.58379833984375,5.201137542724609,1.1050260066986084,2.181891918182373
1772740692268584000,8.602583984375,2.745138168334961,0.8115309476852417,1.691341757774353
1772740692287356400,8.6213564453125,1.0462045669555664,0.22953546047210693,1.1545687913894653
1772740692306115600,8.640115478515625,-2.0135207176208496,-0.27007949352264404,0.405076265335083
1772740692324901000,8.658901123046874,-4.672791957855225,-0.4608699381351471,-0.1392158567905426
1772740692343673600,8.677673583984374,-6.531416893005371,-0.7668108940124512,-0.34076127409935
1772740692362433000,8.69643310546875,-8.360738754272461,-1.0678941011428833,-0.3534773588180542
1772740692381218600,8.715218505859376,-8.939196586608887,-1.2095885276794434,-0.24866050481796265
1772740692399990800,8.73399072265625,-9.48021125793457,-0.9455876350402832,-0.17281801998615265
1772740692418763300,8.75276318359375,-9.179573059082031,-0.5157322883605957,0.23575040698051453
1772740692437535700,8.77153564453125,-8.270512580871582,-0.36834073066711426,0.6061401963233948
1772740692456308200,8.79030810546875,-7.631311893463135,-0.509129524230957,0.6488536596298218
1772740692475080400,8.80908056640625,-7.390340328216553,-0.8452161550521851,0.42175450921058655
1772740692493853000,8.82785302734375,-6.422194004058838,-1.246093988418579,0.1545134335756302
1772740692512625400,8.84662548828125,-5.461187839508057,-1.7451928853988647,-0.24378326535224915
1772740692531384800,8.865384765625,-4.082175254821777,-1.645929217338562,-0.8215678930282593
1772740692550170000,8.884170166015625,-2.5279436111450195,-0.2954223155975342,-2.0663979053497314
1772740692568942600,8.902942626953125,0.297821044921875,0.8955694437026978,-3.0439319610595703
1772740692587702000,8.921701904296874,5.343014717102051,0.9004251956939697,-2.1569011211395264
1772740692606487600,8.940487548828125,10.685391426086426,-0.6683139801025391,-0.6891582012176514
1772740692625260000,8.959260009765625,13.646692276000977,-2.9249730110168457,-1.1292872428894043
1772740692644019200,8.978019287109374,14.047920227050781,-4.51192569732666,-2.267590045928955
1772740692662804700,8.9968046875,14.551437377929688,-4.533094882965088,-2.8135507106781006
1772740692681577200,9.0155771484375,13.03845500946045,-3.0185070037841797,-2.58457612991333
1772740692700336600,9.034336669921874,10.774636268615723,-0.6959716081619263,-1.6821773052215576
1772740692719122200,9.0531220703125,7.748050689697266,1.182975172996521,-0.615957498550415
1772740692737894400,9.071894287109375,4.669002532958984,1.8399009704589844,0.0248526930809021
1772740692756653800,9.09065380859375,2.8413476943969727,1.1766529083251953,0.4172896146774292
1772740692775439400,9.109439453125,0.5612764358520508,0.5975878834724426,0.5564441680908203
1772740692794211800,9.1282119140625,-1.9697308540344238,0.0447121262550354,0.5515530705451965
1772740692812971000,9.146970947265626,-4.597783088684082,-0.43348827958106995,0.4816185235977173
1772740692831756500,9.165756591796875,-7.44478702545166,-0.8504840135574341,0.6451308131217957
1772740692850529000,9.184529052734375,-10.543392181396484,-1.272741675376892,0.5390254259109497
1772740692869288400,9.203288330078125,-11.852762222290039,-2.104640007019043,-0.1321934163570404
1772740692888074000,9.222073974609375,-13.211606979370117,-2.530487537384033,-0.8398807048797607
1772740692906846200,9.24084619140625,-12.246600151062012,-1.7466166019439697,-0.7812445163726807
1772740692925605600,9.259605712890625,-9.843521118164062,-1.5942742824554443,-0.3600783944129944
1772740692944391200,9.27839111328125,-8.048490524291992,-1.6951310634613037,-0.11096024513244629
1772740692963163600,9.29716357421875,-6.13231086730957,-1.5013153553009033,0.3045657277107239
1772740692981922800,9.3159228515625,-4.385385513305664,-0.6425328254699707,0.6098414063453674
1772740693000708400,9.334708251953124,-2.6638174057006836,0.3216240406036377,0.27359986305236816
1772740693019480800,9.353480712890626,-0.10883140563964844,0.9893785715103149,-0.1519414782524109
1772740693038240300,9.372240234375,2.9605226516723633,1.151604413986206,0.191231369972229
1772740693057025800,9.39102587890625,5.902164459228516,1.2555065155029297,0.4739716053009033
1772740693075798300,9.40979833984375,8.069391250610352,0.3778270483016968,0.0063523054122924805
1772740693094557400,9.428557373046875,10.524771690368652,-0.5927520990371704,-0.15539002418518066
1772740693113343000,9.447343017578126,12.88144302368164,-0.9661511182785034,1.1264705657958984
1772740693132115500,9.466115478515626,14.447456359863281,-1.2090749740600586,2.442506790161133
1772740693150888000,9.484887939453126,13.995128631591797,-1.093023657798767,2.9709534645080566
1772740693169660200,9.50366015625,11.109920501708984,-0.15993249416351318,3.047147274017334
1772740693188432600,9.5224326171875,7.147271156311035,1.2020761966705322,2.725886821746826
1772740693207192000,9.541192138671875,3.6312360763549805,2.0282626152038574,2.2320241928100586
1772740693225977600,9.5599775390625,0.1339282989501953,1.6372013092041016,1.4103299379348755
1772740693244750000,9.57875,-2.677464485168457,0.7380263805389404,0.389304518699646
1772740693263509200,9.59750927734375,-4.918885231018066,0.17550969123840332,-0.297857403755188
1772740693282294800,9.616294677734375,-6.720417022705078,-0.3295919895172119,-0.7015488743782043
1772740693301067300,9.6350673828125,-7.9665117263793945,-0.6099284291267395,-1.011444091796875
1772740693319826700,9.65382666015625,-9.265236854553223,-0.15903359651565552,-1.2543275356292725
1772740693338612200,9.6726123046875,-10.4713134765625,0.2703334093093872,-1.4824864864349365
1772740693357384700,9.691384765625,-10.63283634185791,0.42838144302368164,-1.60874342918396
1772740693376157000,9.710156982421875,-9.624022483825684,0.17094004154205322,-1.4178197383880615
1772740693394929400,9.728929443359375,-8.487605094909668,-0.4491288661956787,-1.218924641609192
1772740693413702000,9.747701904296875,-7.025572776794434,-1.2901183366775513,-0.9551321268081665
1772740693432461300,9.76646142578125,-6.049353122711182,-1.979874610900879,-0.8487493395805359
1772740693451246800,9.785246826171875,-4.8286237716674805,-2.5468173027038574,-0.42230722308158875
1772740693470019000,9.80401904296875,-6.419623374938965,-1.898366093635559,-1.1128044128417969
1772740693488778500,9.822778564453126,-4.3605546951293945,-0.09954071044921875,-1.2042502164840698
1772740693507564000,9.84156396484375,-0.045372962951660156,1.590212106704712,-1.2639493942260742
1772740693526336500,9.86033642578125,5.771756172180176,1.3556110858917236,-1.0924276113510132
1772740693545096000,9.879095947265625,10.275123596191406,-0.8835543394088745,-1.0182902812957764
