time,seconds_elapsed,z,y,x
1772740683815307000,0.14930712890625,-0.0587940476834774,0.15591876208782196,0.4446968138217926
1772740683852851700,0.186851806640625,0.275186687707901,-0.10613471269607544,0.4321744441986084
1772740683871624000,0.2056240234375,0.446529358625412,-0.12644538283348083,0.1050657257437706
1772740683890396400,0.224396484375,0.6013791561126709,-0.11331216990947723,-0.284654825925827
1772740683909168600,0.243168701171875,0.7220214605331421,-0.14370182156562805,-0.666128933429718
1772740683927941000,0.261941162109375,0.7273663878440857,-0.04550812020897865,-0.9564340710639954
1772740683946713300,0.28071337890625,0.6418477296829224,0.04413371533155441,-1.0213366746902466
1772740683965485800,0.29948583984375,0.5468609929084778,-0.0010689827613532543,-0.848924994468689
1772740683984258000,0.318258056640625,0.43767204880714417,-0.10521844029426575,-0.6668924689292908
1772740684003030300,0.3370302734375,0.2924431264400482,-0.03634541109204292,-0.6174138784408569
1772740684021802800,0.355802734375,0.23319093883037567,0.17057909071445465,-0.6119162440299988
1772740684040575000,0.374574951171875,0.20616094768047333,0.45233240723609924,-0.5013529062271118
1772740684059334400,0.39333447265625,0.3026748299598694,0.5063923597335815,-0.1969982385635376
1772740684078119700,0.41211962890625,0.49325916171073914,0.45049986243247986,0.26602399349212646
1772740684096892200,0.43089208984375,0.5685460567474365,0.4031592011451721,0.7040014863014221
1772740684115664400,0.449664306640625,0.5595360994338989,0.35413870215415955,0.941468358039856
1772740684134436900,0.468436767578125,0.5137225389480591,0.4381301999092102,0.9052756428718567
1772740684153209000,0.487208984375,0.4178195297718048,0.3981196880340576,0.6836907863616943
1772740684171968300,0.50596826171875,0.32634514570236206,0.23716144263744354,0.4747810363769531
1772740684190753800,0.52475390625,0.2927485406398773,-0.07681404054164886,0.16859383881092072
1772740684209526000,0.543526123046875,0.37475478649139404,-0.7617265582084656,-0.23807771503925323
1772740684228285400,0.562285400390625,0.3746020793914795,-1.0573766231536865,-0.8108997344970703
1772740684247070700,0.58107080078125,0.1238492801785469,-0.5303681492805481,-1.651731014251709
1772740684265843200,0.59984326171875,-0.014507622458040714,0.18722468614578247,-1.8711779117584229
1772740684284602400,0.618602294921875,0.2658712565898895,0.41445985436439514,-0.8119687438011169
1772740684303388000,0.637387939453125,0.616802990436554,0.16737215220928192,0.4897467792034149
1772740684322160000,0.65616015625,0.6804838180541992,-0.09987352788448334,0.860683798789978
1772740684340919600,0.67491943359375,0.5234960913658142,-0.1785201132297516,0.3184041380882263
1772740684359704800,0.693704833984375,0.372464120388031,-0.07971556484699249,-0.2852656841278076
1772740684378477300,0.712477294921875,0.33886751532554626,-0.055892523378133774,-0.2832804024219513
1772740684397236500,0.731236572265625,0.30313295125961304,-0.23975755274295807,0.17027367651462555
1772740684416022000,0.75002197265625,0.2229592502117157,-0.42240089178085327,0.5464028716087341
1772740684434794200,0.768794189453125,0.11743538826704025,-0.5352548956871033,0.571294903755188
1772740684453553700,0.7875537109375,0.0647498071193695,-0.4340069890022278,0.23502348363399506
1772740684472339000,0.8063388671875,0.03695625811815262,-0.00992626789957285,-0.14660334587097168
1772740684491111400,0.825111328125,-0.01817270554602146,0.2820587158203125,-0.22631891071796417
1772740684509870600,0.84387060546875,-0.07482878863811493,0.2586938142776489,0.059557609260082245
1772740684528656100,0.86265625,-0.12400199472904205,0.10766182839870453,0.5131117105484009
1772740684547428400,0.881428466796875,-0.12018419802188873,0.00030542362947016954,0.8431219458580017
1772740684566200800,0.900200927734375,-0.1298050433397293,-0.028557108715176582,0.9694145917892456
1772740684584973000,0.91897314453125,-0.10674555599689484,0.013744063675403595,0.8758022785186768
1772740684603745500,0.93774560546875,-0.06581879407167435,0.008704573847353458,0.674680769443512
1772740684622504700,0.956504638671875,-0.03542914241552353,-0.026877280324697495,0.3892624080181122
1772740684641290200,0.975290283203125,-0.020310672000050545,-0.0978882759809494,0.10140064358711243
1772740684660062500,0.9940625,-0.13240113854408264,-0.5584670901298523,-0.05619794875383377
1772740684678822000,1.01282177734375,-0.13469181954860687,-0.774707019329071,-0.10598199814558029
1772740684697607200,1.031607177734375,-0.11438114941120148,-0.4037700295448303,-0.5444176197052002
1772740684716379600,1.050379638671875,0.08108997344970703,0.0587940476834774,-0.9535325765609741
1772740684735138800,1.069138916015625,0.2593046724796295,0.08017370104789734,-0.9823951125144958
1772740684753924400,1.08792431640625,0.3313846290111542,-0.01175880990922451,-0.8313631415367126
1772740684772696600,1.106696533203125,0.483485609292984,-0.10262233763933182,-0.7238540053367615
1772740684791456000,1.1254560546875,0.6896465420722961,-0.06765133142471313,-0.8959602117538452
1772740684810241300,1.1442412109375,0.6711684465408325,-0.03451287001371384,-1.1041064262390137
1772740684829013800,1.163013671875,0.34405970573425293,-0.004275931045413017,-0.9684983491897583
1772740684847773000,1.18177294921875,-0.01572931744158268,-0.04871506989002228,-0.4883723855018616
1772740684866558500,1.200558349609375,-0.19531841576099396,-0.23227466642856598,0.05925218388438225
1772740684885330700,1.21933056640625,-0.18539214134216309,-0.40254834294319153,0.4543176591396332
1772740684904090000,1.238090087890625,-0.10063708573579788,-0.26663482189178467,0.46042612195014954
1772740684922875400,1.25687548828125,-0.04413371533155441,0.11743538826704025,0.17409147322177887
1772740684941648000,1.27564794921875,-0.020005248486995697,0.3552076816558838,-0.027182703837752342
1772740684960407000,1.294406982421875,0.09177979826927185,0.29748260974884033,0.12812520563602448
1772740684979192600,1.313192626953125,0.24159009754657745,0.07727217674255371,0.5514423847198486
1772740684997964800,1.33196484375,0.33260634541511536,0.029778804630041122,0.8997780084609985
1772740685016737300,1.3507373046875,0.37414395809173584,0.164165198802948,0.9703308939933777
1772740685035509500,1.369509521484375,0.36971530318260193,0.2779355049133301,0.8202151656150818
1772740685054282000,1.388281982421875,0.31351736187934875,0.3746020793914795,0.6933116316795349
1772740685073041200,1.407041259765625,0.2707580327987671,0.47707170248031616,0.8654178380966187
1772740685091826700,1.42582666015625,0.2670929729938507,0.5584670901298523,1.0106468200683594
1772740685110599000,1.444598876953125,0.19944162666797638,0.3370349705219269,0.8222004175186157
1772740685129358300,1.4633583984375,0.17286977171897888,-0.5486935377120972,0.5257867574691772
1772740685148143600,1.4821435546875,0.27747735381126404,-1.2128372192382812,0.04504998400807381
1772740685166916000,1.500916015625,0.072232685983181,-0.7744016051292419,-1.2299410104751587
1772740685185675300,1.51967529296875,-0.32038938999176025,0.3364241421222687,-2.239213228225708
1772740685204460800,1.538460693359375,-0.3730749487876892,1.1980241537094116,-1.4110571146011353
1772740685223233000,1.55723291015625,-0.0844496339559555,1.023932695388794,0.12720894813537598
1772740685241992400,1.575992431640625,0.07314895838499069,0.13423368334770203,0.5714476108551025
1772740685260778000,1.594778076171875,0.03955236077308655,-0.4587462842464447,-0.09330692142248154
1772740685279550200,1.61355029296875,-0.032069481909275055,-0.3530697226524353,-0.7974610924720764
1772740685298309400,1.632309326171875,-0.042606595903635025,-0.039857782423496246,-0.9159654378890991
1772740685317095000,1.651094970703125,-0.05482354015111923,0.025350160896778107,-0.5325061082839966
1772740685335867400,1.669867431640625,-0.09055810421705246,-0.24128466844558716,-0.07559234648942947
1772740685354626600,1.68862646484375,-0.1450762301683426,-0.511431872844696,0.182643324136734
1772740685373412000,1.707412109375,-0.23120568692684174,-0.4156815707683563,0.1969982385635376
1772740685392184300,1.726184326171875,-0.266176700592041,-0.05131116881966591,0.15622419118881226
1772740685410943700,1.74494384765625,-0.25289076566696167,0.22784602642059326,0.2564031481742859
1772740685429729000,1.76372900390625,-0.23273280262947083,0.2933593988418579,0.4781406819820404
1772740685448501500,1.78250146484375,-0.2148655205965042,0.15652960538864136,0.7072083950042725
1772740685467273700,1.801273681640625,-0.19821994006633759,-0.10811996459960938,0.7844805717468262
1772740685486046200,1.820046142578125,-0.23120568692684174,-0.16187451779842377,0.5520532131195068
1772740685504818400,1.838818359375,-0.2345653474330902,0.08154810965061188,0.12827792763710022
1772740685523577900,1.857577880859375,-0.13713520765304565,0.1820324808359146,-0.20402298867702484
1772740685542363400,1.87636328125,0.08200624585151672,-0.17470231652259827,-0.4080459773540497
1772740685561135600,1.895135498046875,0.3709369897842407,-0.7027797698974609,-0.509141206741333
1772740685579894800,1.913894775390625,0.399952232837677,-0.6094728708267212,-0.7702783942222595
1772740685598680300,1.932680419921875,0.515707790851593,-0.00015271181473508477,-1.0205730199813843
1772740685617452800,1.951452880859375,0.8487722873687744,0.3313846290111542,-0.483485609292984
1772740685636212000,1.9702119140625,1.1201411485671997,0.23349636793136597,0.24968381226062775
1772740685654997500,1.98899755859375,1.1508362293243408,0.0012216945178806782,0.564728319644928
1772740685673769700,2.007769775390625,1.0581401586532593,-0.1632489264011383,0.5120427012443542
1772740685692529200,2.026529052734375,0.8090671896934509,-0.032069481909275055,0.26632940769195557
1772740685711314400,2.045314453125,0.5267030596733093,0.3071034550666809,-0.09666658192873001
1772740685730087000,2.0640869140625,0.30374380946159363,0.48898324370384216,-0.4095730781555176
1772740685748846000,2.08284619140625,0.14461809396743774,0.3897205591201782,-0.4618005156517029
1772740685767631600,2.101631591796875,0.04107947647571564,0.14874130487442017,-0.34161633253097534
1772740685786404000,2.120404052734375,0.03130592033267021,0.08674030750989914,-0.18630841374397278
1772740685805163300,2.139163330078125,0.12720894813537598,0.19058434665203094,-0.12369657307863235
1772740685823948800,2.15794873046875,0.18753011524677277,0.25212720036506653,-0.04062134400010109
1772740685842721000,2.176720947265625,0.22311195731163025,0.22937314212322235,0.21120044589042664
1772740685861480400,2.19548046875,0.29030516743659973,0.00992626789957285,0.4553866386413574
1772740685880265700,2.214265625,0.29717719554901123,-0.16996824741363525,0.4680617153644562
1772740685899038200,2.2330380859375,0.19455485045909882,-0.0397050715982914,0.23716144263744354
1772740685917797400,2.25179736328125,0.10033166408538818,0.18997350335121155,-0.09025268256664276
1772740685936583000,2.2705830078125,0.07269082218408585,0.4169032573699951,-0.23868857324123383
1772740685955355100,2.289355224609375,0.11056335270404816,0.5572454333305359,-0.06413896381855011
1772740685974114600,2.308114501953125,0.1423274129629135,0.5341859459877014,0.27808821201324463
1772740685992900000,2.326900146484375,0.1119377613067627,0.3642176687717438,0.42606595158576965
1772740686011672300,2.34567236328125,0.034665580838918686,0.06520794332027435,0.2507528066635132
1772740686030431700,2.364431640625,0.14935214817523956,-0.34696123003959656,-0.10705098509788513
1772740686049217000,2.383217041015625,0.19776180386543274,-0.6171084642410278,-0.252432644367218
1772740686067989500,2.401989501953125,0.005955760832875967,-0.31443363428115845,-0.31260108947753906
1772740686086748700,2.420748779296875,-0.2652604281902313,0.07986827939748764,-0.39918869733810425
1772740686105534200,2.4395341796875,-0.2820587158203125,0.6146650314331055,-0.4008685052394867
1772740686124306700,2.458306640625,-0.012369656935334206,0.9121476411819458,-0.2101314514875412
1772740686143065900,2.47706591796875,0.20005246996879578,0.6398624777793884,-0.15057384967803955
1772740686161851400,2.495851318359375,0.3106158375740051,0.29977330565452576,-0.5238015055656433
1772740686180623600,2.51462353515625,0.3715478479862213,0.24785128235816956,-0.8380824327468872
1772740686199383000,2.533383056640625,0.44042086601257324,0.21837788820266724,-0.8151756525039673
1772740686218168300,2.552168212890625,0.45767730474472046,0.1253764033317566,-0.5088357925415039
1772740686236940800,2.57094091796875,0.4030064642429352,0.08185353130102158,-0.1495048701763153
1772740686255700200,2.5897001953125,0.30725616216659546,0.0713164210319519,0.10201149433851242
1772740686274485500,2.608485595703125,0.17180079221725464,0.0781884491443634,0.19409671425819397
1772740686293258000,2.627258056640625,-0.018630841746926308,0.1757712960243225,0.20539739727973938
1772740686312017200,2.64601708984375,-0.16691401600837708,0.26159533858299255,0.20555010437965393
1772740686330802700,2.664802734375,-0.25411245226860046,0.3626905679702759,0.36223241686820984
1772740686349575200,2.6835751953125,-0.26312246918678284,0.2641914486885071,0.7082774043083191
1772740686368347400,2.702347412109375,-0.19333316385746002,0.04230117425322533,1.0312628746032715
1772740686387119900,2.721119873046875,-0.2176143378019333,-0.1172826737165451,0.9828532338142395
1772740686405892000,2.73989208984375,-0.2585411071777344,-0.1698155403137207,0.7336275577545166
1772740686424651500,2.758651611328125,-0.24907296895980835,-0.07803573459386826,0.38452833890914917
1772740686443436800,2.777436767578125,-0.17454960942268372,-0.14767232537269592,0.17775654792785645
1772740686462209300,2.796209228515625,-0.18310146033763885,-0.4446968138217926,-0.05268557742238045
1772740686480968700,2.81496875,-0.30374380946159363,-0.8808417320251465,-0.20142687857151031
1772740686499759000,2.833759033203125,-0.43385425209999084,-0.8335011005401611,-0.5198310017585754
1772740686518531600,2.852531494140625,-0.2964136302471161,-0.2363978922367096,-0.7759287357330322
1772740686537290800,2.871290771484375,-0.005344913341104984,-0.11422843486070633,-0.550373375415802
1772740686556076300,2.890076171875,0.20432840287685394,-0.4193466305732727,-0.1441599577665329
1772740686574848800,2.908848876953125,0.40041038393974304,-0.5564818382263184,0.23181653022766113
1772740686593608000,2.92760791015625,0.6336013078689575,-0.5890094637870789,0.4008685052394867
1772740686612393500,2.9463935546875,0.684759795665741,-0.4340069890022278,0.2829749882221222
1772740686631165700,2.965165771484375,0.6149705052375793,-0.25350162386894226,0.07773031294345856
1772740686649925000,2.983925048828125,0.4324798583984375,-0.258999228477478,-0.15500248968601227
1772740686668710700,3.002710693359375,0.12720894813537598,-0.24097923934459686,-0.4421007037162781
1772740686687483000,3.02148291015625,-0.17561858892440796,-0.031000498682260513,-0.7067502737045288
1772740686706242300,3.0402421875,-0.2641914486885071,0.15454435348510742,-0.7088882327079773
1772740686725027600,3.059027587890625,-0.1519482582807541,0.18768282234668732,-0.5076140761375427
1772740686743800000,3.077800048828125,0.031916771084070206,0.13240113854408264,-0.11651911586523056
1772740686762559500,3.0965595703125,0.2098260372877121,-0.11438114941120148,0.3258870244026184
1772740686781344800,3.1153447265625,0.21425467729568481,-0.13713520765304565,0.5825955867767334
1772740686800117200,3.1341171875,0.14583978056907654,-0.07040014863014221,0.569004237651825
1772740686818889700,3.1528896484375,0.17806197702884674,-0.07009471952915192,0.4737120568752289
1772740686837662000,3.171661865234375,0.24281178414821625,0.017561858519911766,0.43614494800567627
1772740686856434400,3.190434326171875,0.2733541429042816,-0.0035123717971146107,0.4897467792034149
1772740686875193600,3.209193603515625,0.24036839604377747,0.07452336698770523,0.5725166201591492
1772740686893979100,3.227979248046875,0.2554868757724762,0.22463907301425934,0.5606050491333008
1772740686912751600,3.246751708984375,0.30725616216659546,0.3578037917613983,0.47829338908195496
1772740686931510800,3.2655107421875,0.4459185004234314,0.046424392610788345,0.4957025647163391
1772740686950296300,3.28429638671875,0.5196782946586609,-0.9979717135429382,0.2504473626613617
1772740686969068500,3.303068603515625,0.1432436853647232,-1.6440954208374023,-0.47768256068229675
1772740686987828000,3.321827880859375,-0.7314895987510681,-0.5372401475906372,-1.1767972707748413
1772740687006613500,3.340613525390625,-1.1531269550323486,0.8192988634109497,-1.052642583847046
1772740687025385700,3.3593857421875,-0.8570187091827393,0.9298622608184814,-0.48669254779815674
1772740687044145200,3.378145263671875,-0.5331169366836548,0.41507071256637573,-0.024586603045463562
1772740687062930700,3.3969306640625,-0.37857258319854736,-0.13484452664852142,-0.08750387281179428
1772740687081703000,3.415702880859375,-0.21807247400283813,-0.5367820262908936,-0.5699204802513123
1772740687100462300,3.43446240234375,-0.04749337583780289,-0.3710896968841553,-1.0491302013397217
1772740687119247600,3.45324755859375,0.08719844371080399,-0.09590301662683487,-1.1470184326171875
1772740687138020000,3.47202001953125,0.19654010236263275,-0.10582929104566574,-0.7392778992652893
1772740687156779500,3.490779541015625,0.3092414140701294,-0.21089501678943634,-0.15286453068256378
1772740687175564800,3.509564697265625,0.39109495282173157,-0.13423368334770203,0.2736595869064331
1772740687194337300,3.528337158203125,0.41232189536094666,0.14171656966209412,0.4431696832180023
1772740687213096700,3.5470966796875,0.40254834294319153,0.36696648597717285,0.5616740584373474
1772740687231882000,3.565882080078125,0.3524588644504547,0.5265503525733948,0.6899519562721252
1772740687250654500,3.584654541015625,0.2011214643716812,0.6968240141868591,0.8273926377296448
1772740687269413600,3.60341357421875,0.04978405311703682,0.7595885396003723,0.9895725846290588
1772740687288199200,3.62219921875,-0.01954711228609085,0.4390464723110199,1.1070079803466797
1772740687306971600,3.6409716796875,-0.04810422286391258,0.23090025782585144,0.9932376146316528
1772740687325743900,3.659743896484375,-0.025808297097682953,0.337340384721756,0.7608102560043335
1772740687344516400,3.678516357421875,0.06306997686624527,0.48608171939849854,0.4734066128730774
1772740687363288800,3.697288818359375,0.2160872220993042,0.6355865597724915,0.314586341381073
1772740687382048000,3.716048095703125,0.40789327025413513,0.33001023530960083,0.30664533376693726
1772740687400833500,3.73483349609375,0.4856235682964325,-0.22372281551361084,0.072843536734581
1772740687419606000,3.75360595703125,0.2677038013935089,-0.3503209054470062,-0.46424391865730286
1772740687438365200,3.772365234375,0.04367557913064957,0.13713520765304565,-1.3414205312728882
1772740687457150700,3.791150634765625,0.14645062386989594,0.5285356044769287,-1.7473286390304565
1772740687475923200,3.809923095703125,0.30252209305763245,-0.0393996499478817,-1.071884274482727
1772740687494682400,3.828682373046875,0.5089884996414185,-0.32817769050598145,0.2376195788383484
1772740687513468000,3.847468017578125,0.8594620823860168,-0.32191649079322815,0.9458969831466675
1772740687532240100,3.866240234375,0.989267110824585,0.02076880633831024,0.8745805621147156
1772740687550999600,3.88499951171875,0.7991409301757812,0.3274141252040863,0.6435275673866272
1772740687569785000,3.90378515625,0.5263976454734802,0.40010493993759155,0.42667680978775024
1772740687588557300,3.922557373046875,0.32542887330055237,0.4474456310272217,0.26602399349212646
1772740687607316700,3.941316650390625,0.26067906618118286,0.5118899941444397,0.22708246111869812
1772740687626102300,3.960102294921875,0.2229592502117157,0.44072631001472473,0.21853061020374298
1772740687644874500,3.97887451171875,0.09300149232149124,0.31565532088279724,0.04489727318286896
1772740687663634000,3.997634033203125,-0.10430216789245605,0.32909396290779114,-0.26190075278282166
1772740687682419500,4.01641943359375,-0.18798823654651642,0.3277195692062378,-0.5008947253227234
1772740687701191700,4.035191650390625,-0.28664007782936096,0.1782146841287613,-0.4492781460285187
1772740687719964200,4.053964111328125,-0.2736595869064331,-0.07421794533729553,-0.14125843346118927
1772740687738736600,4.072736572265625,-0.2551814317703247,-0.22738789021968842,0.025655584409832954
1772740687757508900,4.0915087890625,-0.2845021188259125,-0.3202366828918457,-0.038788799196481705
1772740687776268300,4.110268310546875,-0.4077405333518982,-0.3390202224254608,-0.261442631483078
1772740687795053800,4.1290537109375,-0.5372401475906372,-0.275186687707901,-0.38223767280578613
1772740687813826000,4.147825927734375,-0.49081575870513916,-0.19913621246814728,-0.11483928561210632
1772740687832585500,4.16658544921875,-0.2912214398384094,-0.0975828468799591,0.3038965165615082
1772740687851371000,4.18537109375,-0.04199574887752533,-0.24632415175437927,0.6725428104400635
1772740687870143200,4.204143310546875,-0.01969982497394085,-0.9443698525428772,0.5094466209411621
1772740687888902700,4.222902587890625,-0.1948602795600891,-1.5643798112869263,-0.5150969624519348
1772740687907688200,4.241688232421875,-0.45676103234291077,-0.8370134830474854,-1.385554313659668
1772740687926460400,4.26046044921875,-0.4680617153644562,0.042453885078430176,-0.9539906978607178
1772740687945219800,4.2792197265625,-0.17180079221725464,0.37704548239707947,0.31000497937202454
1772740687964005400,4.29800537109375,0.13392825424671173,0.6665870547294617,0.9914051294326782
1772740687982777600,4.316777587890625,0.37735089659690857,0.7840224504470825,0.9619317054748535
1772740688001537000,4.335537109375,0.4309527277946472,0.6459710001945496,0.43202173709869385
1772740688020322300,4.354322265625,0.37231141328811646,0.3811686933040619,-0.2683146595954895
1772740688039094800,4.3730947265625,0.30633988976478577,0.058183200657367706,-0.5720584392547607
1772740688057854200,4.391854248046875,0.2761029601097107,-0.0653606578707695,-0.4497362971305847
1772740688076639500,4.410639404296875,0.28098973631858826,0.07498150318861008,-0.2360924631357193
1772740688095412000,4.429411865234375,0.2510582208633423,0.20555010437965393,-0.026724567636847496
1772740688114171400,4.44817138671875,0.15469707548618317,0.1904316395521164,0.09116895496845245
1772740688132956700,4.466956787109375,0.0009162708884105086,0.293664813041687,0.12018419802188873
1772740688151729200,4.485729248046875,-0.14858859777450562,0.35413870215415955,0.17286977171897888
1772740688170488600,4.504488525390625,-0.2644968628883362,0.2945810854434967,0.32634514570236206
1772740688189273900,4.52327392578125,-0.30343836545944214,0.09941539168357849,0.5242596864700317
1772740688208046300,4.54204638671875,-0.3032856583595276,-0.08338065445423126,0.6273401379585266
1772740688226818800,4.56081884765625,-0.2945810854434967,-0.1832541823387146,0.6180247068405151
1772740688245591300,4.57959130859375,-0.27381229400634766,-0.25289076566696167,0.5289937257766724
1772740688264363500,4.598363525390625,-0.24281178414821625,-0.2770192325115204,0.4246915578842163
1772740688283123000,4.617123046875,-0.25502872467041016,-0.3239017724990845,0.2683146595954895
1772740688301908500,4.635908447265625,-0.2367033064365387,-0.5990884304046631,0.021990500390529633
1772740688320680700,4.6546806640625,-0.21959958970546722,-0.9936957955360413,-0.4871506989002228
1772740688339440000,4.673440185546875,-0.32787227630615234,-0.9602518677711487,-1.0680664777755737
1772740688358225700,4.6922255859375,-0.5041016936302185,-0.3382566571235657,-1.4727526903152466
1772740688376998000,4.710997802734375,-0.40422818064689636,0.0978882759809494,-1.3673815727233887
1772740688395757300,4.72975732421875,-0.06520794332027435,-0.010842538438737392,-0.7435538172721863
1772740688414542800,4.74854296875,0.1644706279039383,-0.026877280324697495,0.01588202826678753
1772740688433315000,4.767315185546875,0.3823903799057007,0.042759306728839874,0.33474430441856384
1772740688452074500,4.786074462890625,0.5166240930557251,0.11468657106161118,0.27091076970100403
1772740688470860000,4.804860107421875,0.44820916652679443,0.21150586009025574,0.1632489264011383
1772740688489632300,4.82363232421875,0.28282228112220764,0.2777827978134155,0.07666133344173431
1772740688508391700,4.8423916015625,0.15943112969398499,0.3439069986343384,-0.009468132629990578
1772740688527177200,4.86117724609375,0.1178935244679451,0.38758260011672974,-0.05741964280605316
1772740688545949400,4.879949462890625,0.11545012891292572,0.3617742955684662,-0.10949437320232391
1772740688564708900,4.898708984375,0.12339114397764206,0.2435753494501114,-0.15805672109127045
1772740688583494400,4.917494384765625,0.10827267915010452,0.10934165865182877,-0.1501157134771347
1772740688602266600,4.9362666015625,0.1241547018289566,-0.0006108472589403391,0.020310672000050545
1772740688621026000,4.955026123046875,0.21837788820266724,-0.15683503448963165,0.33413344621658325
1772740688639811600,4.9738115234375,0.31565532088279724,-0.29473379254341125,0.583053708076477
1772740688658583800,4.992583740234375,0.3364241421222687,-0.42545512318611145,0.6270347237586975
1772740688677356300,5.011356201171875,0.22586077451705933,-0.35383328795433044,0.3761292099952698
1772740688696128800,5.030128662109375,0.09086353331804276,-0.23792500793933868,0.011147962883114815
1772740688714901000,5.04890087890625,0.010078979656100273,-0.055739812552928925,-0.1588202863931656
1772740688733660400,5.067660400390625,-0.008246437646448612,0.11972606182098389,0.00259610079228878
1772740688752446000,5.086446044921875,0.06261184066534042,0.0787992998957634,0.188599094748497
1772740688771218200,5.10521826171875,0.27946263551712036,-0.20341213047504425,0.35352784395217896
1772740688789977600,5.1239775390625,0.4225535988807678,-0.8857285380363464,0.2211267054080963
1772740688808763100,5.14276318359375,0.30603447556495667,-1.4125843048095703,-0.4947862923145294
1772740688827535400,5.161535400390625,0.025350160896778107,-1.109604001045227,-1.4583978652954102
1772740688846294800,5.180294677734375,-0.12064233422279358,0.05528167635202408,-1.7120521068572998
1772740688865080300,5.199080322265625,-0.017409147694706917,0.8518264889717102,-0.6325323581695557
1772740688883852500,5.2178525390625,0.2918322682380676,0.8884773254394531,0.5309789776802063
1772740688902612000,5.236612060546875,0.4981459379196167,0.8751913905143738,0.8458707332611084
1772740688921397500,5.2553974609375,0.6323796510696411,0.73255854845047,0.48012593388557434
1772740688940169700,5.274169677734375,0.6187883019447327,0.5152496695518494,-0.05528167635202408
1772740688958929200,5.29292919921875,0.44484952092170715,0.3843756318092346,-0.32909396290779114
1772740688977714400,5.31171435546875,0.34726667404174805,0.31092125177383423,-0.2411319613456726
1772740688996487000,5.33048681640625,0.3071034550666809,0.33382803201675415,0.04016320779919624
1772740689015246300,5.349246337890625,0.22540263831615448,0.3567348122596741,0.2985515892505646
1772740689034031600,5.368031494140625,0.11514470726251602,0.28694549202919006,0.4596625566482544
1772740689052804000,5.38680419921875,0.030389651656150818,0.27656111121177673,0.5309789776802063
1772740689071563500,5.4055634765625,-0.049020491540431976,0.3593308925628662,0.5326588153839111
1772740689090349000,5.42434912109375,-0.1516428291797638,0.4274403750896454,0.533727765083313
1772740689109121300,5.443121337890625,-0.2345653474330902,0.40453359484672546,0.585038959980011
1772740689127880700,5.461880615234375,-0.23868857324123383,0.34818294644355774,0.6355865597724915
1772740689146666200,5.480666259765625,-0.15439164638519287,0.19867807626724243,0.684148907661438
1772740689165438500,5.4994384765625,-0.06520794332027435,-0.06245913356542587,0.6771242022514343
1772740689184211000,5.5182109375,-0.06704048812389374,-0.2163926362991333,0.6409314870834351
1772740689202983400,5.5369833984375,-0.11392301321029663,-0.448820024728775,0.448361873626709
1772740689221755600,5.555755615234375,-0.23777230083942413,-0.7617265582084656,0.021226942539215088
1772740689240515000,5.57451513671875,-0.386208176612854,-1.1531269550323486,-0.7195780873298645
1772740689259300600,5.593300537109375,-0.6325323581695557,-1.1280821561813354,-1.6761648654937744
1772740689278072800,5.61207275390625,-0.8716790676116943,-0.30221667885780334,-2.1619410514831543
1772740689296832300,5.630832275390625,-0.6085565686225891,0.182643324136734,-1.171452283859253
1772740689315617800,5.64961767578125,-0.1391204595565796,-0.34161633253097534,0.22845686972141266
1772740689334390000,5.66839013671875,0.2029540091753006,-0.5404471158981323,0.7739434838294983
1772740689353149400,5.6871494140625,0.4608842432498932,-0.3223746418952942,0.7582141757011414
1772740689371935000,5.70593505859375,0.5766398310661316,-0.09284878522157669,0.5392253994941711
1772740689390707200,5.724707275390625,0.45080527663230896,0.12308572232723236,0.5277720093727112
1772740689409466600,5.743466552734375,0.24632415175437927,0.25380703806877136,0.712247908115387
1772740689428252200,5.762252197265625,0.13774605095386505,0.4300364851951599,0.8148702383041382
1772740689447024400,5.7810244140625,0.12843063473701477,0.5383091568946838,0.6624638438224792
1772740689465783800,5.79978369140625,0.1050657257437706,0.5903838872909546,0.3370349705219269
1772740689484569300,5.8185693359375,0.056808795779943466,0.5952706336975098,0.026724567636847496
1772740689503341600,5.837341552734375,0.07986827939748764,0.6033644080162048,-0.14736689627170563
1772740689522101000,5.85610107421875,0.22647161781787872,0.5448757410049438,0.042606595903635025
1772740689540886500,5.874886474609375,0.37261682748794556,0.3452814221382141,0.46302223205566406
1772740689559658800,5.89365869140625,0.41476529836654663,0.19959434866905212,0.6719319820404053
1772740689578431200,5.91243115234375,0.363454133272171,0.3668137788772583,0.5150969624519348
1772740689597203700,5.93120361328125,0.2877090573310852,0.3903313875198364,0.3110739588737488
1772740689615976000,5.949975830078125,0.2298312783241272,0.15332266688346863,0.13087402284145355
1772740689634735400,5.9687353515625,0.21196399629116058,0.2373141646385193,0.06490252166986465
1772740689653521000,5.98752099609375,0.2858765125274658,0.31260108947753906,0.091321662068367
1772740689672293000,6.006293212890625,0.37322768568992615,0.07375980913639069,0.2641914486885071
1772740689691052500,6.025052490234375,0.35887277126312256,-0.3229855000972748,0.3755183517932892
1772740689709838000,6.043838134765625,0.2480039894580841,-0.7840224504470825,0.15484978258609772
1772740689728610300,6.0626103515625,0.05787777900695801,-0.8582404255867004,-0.617719292640686
1772740689747369700,6.08136962890625,-0.1429382562637329,-0.21364383399486542,-1.5894246101379395
1772740689766155300,6.1001552734375,-0.2170034945011139,0.2522799074649811,-1.3385190963745117
1772740689784927500,6.118927490234375,-0.337340384721756,0.624285876750946,0.05085303261876106
1772740689803700000,6.137699951171875,-0.19501298666000366,0.8594620823860168,0.9907942414283752
1772740689822472400,6.156472412109375,-0.00519220158457756,1.0669974088668823,1.186418056488037
1772740689841244700,6.17524462890625,-0.010689826682209969,0.8212841153144836,0.8893936276435852
1772740689860004000,6.194004150390625,0.022906772792339325,0.3458922505378723,0.29946786165237427
1772740689878789600,6.21278955078125,0.19379130005836487,0.06826218217611313,-0.05024218559265137
1772740689897561900,6.231561767578125,0.36162158846855164,-0.17439688742160797,-0.12003148347139359
1772740689916321300,6.2503212890625,0.4037700295448303,-0.1698155403137207,-0.13316470384597778
1772740689935106800,6.26910693359375,0.36452311277389526,0.06154286116361618,-0.19806721806526184
1772740689953879000,6.287879150390625,0.2686200737953186,0.16660858690738678,-0.33001023530960083
1772740689972638500,6.306638427734375,0.09712471067905426,0.16691401600837708,-0.3443651497364044
1772740689991424000,6.325424072265625,-0.08215895295143127,0.12003148347139359,-0.16141638159751892
1772740690010196200,6.3441962890625,-0.2339545041322708,0.0844496339559555,0.08689302206039429
1772740690028955600,6.36295556640625,-0.3180987238883972,0.07925742864608765,0.21501824259757996
1772740690047741200,6.3817412109375,-0.3912476599216461,0.01175880990922451,0.2145601063966751
1772740690066513400,6.400513427734375,-0.48394373059272766,-0.1782146841287613,0.17027367651462555
1772740690085286000,6.419285888671875,-0.5393781065940857,-0.3787252902984619,0.10399674624204636
1772740690104058400,6.438058349609375,-0.5254813432693481,-0.38819342851638794,0.010689826682209969
1772740690122830600,6.45683056640625,-0.38819342851638794,-0.3452814221382141,-0.08735115826129913
1772740690141590000,6.475590087890625,-0.2623589038848877,-0.42194274067878723,-0.04321744292974472
1772740690160375600,6.49437548828125,-0.3086305856704712,-0.5935907959938049,0.033596597611904144
1772740690179147800,6.513147705078125,-0.5210527181625366,-0.7814263701438904,-0.2651077210903168
1772740690197907200,6.5319072265625,-0.6476507782936096,-0.7925743460655212,-0.9677347540855408
1772740690216692700,6.550692626953125,-0.6934643387794495,-0.18432316184043884,-1.893473744392395
1772740690235465000,6.56946484375,-0.5192201733589172,0.3646758198738098,-1.9227944612503052
1772740690254224400,6.588224365234375,0.09330692142248154,0.2170034945011139,-0.6047387719154358
1772740690273010000,6.607010009765625,0.4808894991874695,-0.28221142292022705,0.3698680102825165
1772740690291782400,6.625782470703125,0.7043069005012512,-0.31122666597366333,0.5073086619377136
1772740690310541600,6.64454150390625,0.8115105628967285,-0.08582404255867004,0.2518217861652374
1772740690329327000,6.6633271484375,0.6781931519508362,0.2238755226135254,0.02870982140302658
1772740690348099600,6.682099609375,0.38941511511802673,0.27747735381126404,-0.013133215717971325
1772740690366858800,6.700858642578125,0.22845686972141266,0.1623326539993286,0.055739812552928925
1772740690385644300,6.719644287109375,0.291374146938324,0.2582356929779053,0.19394400715827942
1772740690404416800,6.738416748046875,0.3852919042110443,0.35795649886131287,0.3828485310077667
1772740690423176000,6.757176025390625,0.41766682267189026,0.34879377484321594,0.49020493030548096
1772740690441961500,6.77596142578125,0.38788801431655884,0.208298921585083,0.4599680006504059
1772740690460734000,6.79473388671875,0.2683146595954895,0.23502348363399506,0.3405473530292511
1772740690479493400,6.813493408203125,0.16752485930919647,0.3802524209022522,0.2530434727668762
1772740690498278700,6.832278564453125,0.1569877415895462,0.5415160655975342,0.2092151790857315
1772740690517051100,6.851051025390625,0.17271706461906433,0.6623111367225647,0.19150061905384064
1772740690535823600,6.86982373046875,0.04169032722711563,0.4637857675552368,0.14553436636924744
1772740690554595800,6.888595947265625,-0.2086043357849121,0.43858832120895386,0.012216945178806782
1772740690573368300,6.907368408203125,-0.3495573401451111,0.48104220628738403,-0.22815145552158356
1772740690592127700,6.926127685546875,-0.3142809271812439,0.47920966148376465,-0.3489464819431305
1772740690610913000,6.9449130859375,-0.18676654994487762,0.41537612676620483,-0.26907822489738464
1772740690629685500,6.963685546875,-0.09575030952692032,0.4017847776412964,-0.04718795046210289
1772740690648445000,6.98244482421875,-0.13209572434425354,0.19806721806526184,0.18753011524677277
1772740690667230200,7.001230224609375,-0.13805148005485535,-0.3461976945400238,-0.02229592576622963
1772740690686002700,7.020002685546875,-0.21120044589042664,-1.1131163835525513,-1.034317135810852
1772740690704762000,7.03876220703125,-0.43018919229507446,-0.990183413028717,-2.1486551761627197
1772740690723547600,7.057547607421875,-0.4289674758911133,0.32787227630615234,-1.8607934713363647
1772740690742319900,7.07631982421875,0.01817270554602146,0.6282563805580139,-0.42224815487861633
1772740690761079300,7.095079345703125,0.33718767762184143,0.23151111602783203,0.5405998229980469
1772740690779864800,7.11386474609375,0.47585001587867737,0.004428642801940441,0.6128324866294861
1772740690798637300,7.13263720703125,0.5141806602478027,-0.049020491540431976,0.007024743594229221
1772740690817396500,7.151396484375,0.4503471553325653,0.05329642444849014,-0.5990884304046631
1772740690836182000,7.17018212890625,0.33688226342201233,0.016492875292897224,-0.587940514087677
1772740690854954500,7.18895458984375,0.15897299349308014,-0.20707722008228302,-0.11147962510585785
1772740690873713700,7.207713623046875,-0.0794101431965828,-0.25441789627075195,0.20707722008228302
1772740690892499200,7.226499267578125,-0.2223484069108963,-0.0004581354442052543,0.056808795779943466
1772740690911271700,7.245271728515625,-0.25411245226860046,0.09559759497642517,-0.014965757727622986
1772740690930030800,7.26403076171875,-0.3906368315219879,-0.0844496339559555,0.24479703605175018
1772740690948816400,7.28281640625,-0.6047387719154358,-0.168899267911911,0.4437805414199829
1772740690967588900,7.3015888671875,-0.6907155513763428,-0.11575555801391602,0.4199574887752533
1772740690986348300,7.320348388671875,-0.6132906675338745,-0.04077405482530594,0.3912476599216461
1772740691005133600,7.339133544921875,-0.46989426016807556,-0.1122431829571724,0.49417543411254883
1772740691023906000,7.357906005859375,-0.342074453830719,-0.35887277126312256,0.7055285573005676
1772740691042678500,7.376678466796875,-0.291374146938324,-0.44988900423049927,0.8006680607795715
1772740691061451000,7.395450927734375,-0.29381752014160156,-0.5204418897628784,0.6911736726760864
1772740691080223200,7.41422314453125,-0.28908345103263855,-0.5587725043296814,0.4572191834449768
1772740691098982700,7.432982666015625,-0.19928891956806183,-0.6114581227302551,0.3640649616718292
1772740691117768200,7.451768310546875,-0.06917845457792282,-0.8044858574867249,0.3477247953414917
1772740691136540700,7.470540771484375,-0.004428642801940441,-1.0928057432174683,0.24220094084739685
1772740691155299800,7.4892998046875,-0.019241688773036003,-1.3316470384597778,-0.388651579618454
1772740691174085400,7.50808544921875,-0.27625566720962524,-1.0676082372665405,-1.8866018056869507
1772740691192857900,7.52685791015625,-0.4969242513179779,-0.054365407675504684,-3.0160584449768066
1772740691211617000,7.545616943359375,-0.10002623498439789,0.19287502765655518,-2.1969120502471924
1772740691230402600,7.564402587890625,0.48363831639289856,-0.3011476993560791,-0.4731011986732483
1772740691249175000,7.583175048828125,0.7548545002937317,-0.34314343333244324,0.18096350133419037
1772740691267934500,7.6019345703125,0.9425373077392578,0.08674030750989914,-0.10185877978801727
1772740691286719700,7.6207197265625,0.8689302206039429,0.42637139558792114,-0.39414918422698975
1772740691305492200,7.6394921875,0.5748072862625122,0.4059080183506012,-0.3962871730327606
1772740691324251600,7.658251708984375,0.3649812340736389,0.31229567527770996,-0.3092414140701294
1772740691343037000,7.677036865234375,0.3387148082256317,0.3506263196468353,-0.1650814712047577
1772740691361809400,7.695809326171875,0.3826957941055298,0.4772244095802307,-0.038483377546072006
1772740691380568800,7.71456884765625,0.3967452943325043,0.48363831639289856,0.05604523420333862
1772740691399354400,7.733354248046875,0.3742966651916504,0.41919392347335815,0.13270656764507294
1772740691418126800,7.752126953125,0.3730749487876892,0.41476529836654663,0.2047865390777588
1772740691436886000,7.770885986328125,0.3680354654788971,0.5581616759300232,0.22998400032520294
1772740691455671600,7.789671630859375,0.3608580231666565,0.5303681492805481,0.27747735381126404
1772740691474444000,7.808444091796875,0.30099499225616455,0.42423340678215027,0.296108216047287
1772740691493216300,7.82721630859375,0.1710372269153595,0.4190412163734436,0.16248537600040436
1772740691511988700,7.84598876953125,0.04459185153245926,0.5242596864700317,-0.038788799196481705
1772740691530761200,7.86476123046875,0.011606098152697086,0.6079457402229309,-0.12583453953266144
1772740691549520600,7.883520751953125,0.03176405653357506,0.6507050395011902,0.03802524134516716
1772740691568306000,7.902305908203125,0.10201149433851242,0.6804838180541992,0.223264679312706
1772740691587078400,7.921078369140625,0.21379654109477997,0.6418477296829224,0.4760027229785919
1772740691605837800,7.939837890625,0.28847262263298035,0.188599094748497,0.8541171550750732
1772740691624623400,7.958623291015625,0.12308572232723236,-0.7572978734970093,0.8782456517219543
1772740691643395600,7.9773955078125,-0.3486410677433014,-1.271173119544983,0.008399149402976036
1772740691662155000,7.996155029296875,-0.9266552925109863,-0.8580876588821411,-1.501615285873413
1772740691680940500,8.0149404296875,-1.150072693824768,0.0719272643327713,-1.9354695081710815
1772740691699713000,8.033713134765625,-0.6966713070869446,0.503948986530304,-1.167481780052185
1772740691718472200,8.05247216796875,0.11300674080848694,0.25563958287239075,-0.20661908388137817
1772740691737257700,8.0712578125,0.6093201637268066,0.20600824058055878,0.28221142292022705
1772740691756030200,8.0900302734375,0.7533273696899414,0.17409147322177887,-0.008704573847353458
1772740691774789400,8.108789306640626,0.6293253898620605,-0.09116895496845245,-0.5748072862625122
1772740691793575000,8.127574951171875,0.44011545181274414,-0.20845162868499756,-0.8718317747116089
1772740691812347400,8.146347412109375,0.36513394117355347,-0.2516690790653229,-0.7632536292076111
1772740691831106800,8.16510693359375,0.3261924386024475,-0.3518480062484741,-0.29885703325271606
1772740691849892400,8.183892333984375,0.13362284004688263,-0.42011019587516785,0.14874130487442017
1772740691868664600,8.20266455078125,-0.08964183181524277,-0.30221667885780334,0.41476529836654663
1772740691887424000,8.221424072265625,-0.21593450009822845,-0.1850867122411728,0.4683671295642853
1772740691906209500,8.24020947265625,-0.23624517023563385,-0.06001574173569679,0.33413344621658325
1772740691924982000,8.25898193359375,-0.17286977171897888,-0.005497625097632408,0.2426590770483017
1772740691943741200,8.2777412109375,-0.06963659077882767,-0.011453386396169662,0.2874036431312561
1772740691962526700,8.296526611328124,0.09086353331804276,-0.06429167091846466,0.41476529836654663
1772740691981299200,8.31529931640625,0.22463907301425934,-0.1904316395521164,0.5502206683158875
1772740692000071700,8.33407177734375,0.2576248347759247,-0.2429644912481308,0.5864133834838867
1772740692018844000,8.352843994140626,0.20631365478038788,-0.2536543309688568,0.5952706336975098
1772740692037616400,8.371616455078126,0.1423274129629135,-0.30725616216659546,0.7090409398078918
1772740692056375800,8.390375732421875,0.09483403712511063,-0.36727190017700195,0.7192726731300354
1772740692075161300,8.409161376953126,0.05008947476744652,-0.3336753249168396,0.4611896872520447
1772740692093933600,8.42793359375,-0.012064233422279358,-0.42362257838249207,0.23807771503925323
1772740692112693000,8.44669287109375,-0.10124793648719788,-0.5456393361091614,-0.16660858690738678
1772740692131478500,8.465478515625,-0.284196674823761,-0.2276933193206787,-0.6505523324012756
1772740692150251000,8.4842509765625,-0.2304421216249466,-0.11667182296514511,-0.5485408306121826
1772740692169010200,8.50301025390625,-0.03374931216239929,-0.2510582208633423,-0.30756160616874695
1772740692187795700,8.521795654296875,0.1369825005531311,-0.17409147322177887,-0.1769929975271225
1772740692206568200,8.540568115234375,0.3133646547794342,-0.056808795779943466,-0.06658235192298889
1772740692225327600,8.55932763671875,0.35230615735054016,0.1388150453567505,-0.1629435122013092
1772740692244113000,8.57811279296875,0.0981936976313591,0.4095730781555176,-0.40010493993759155
1772740692262885400,8.596885498046875,-0.21791976690292358,0.26846736669540405,-0.46699273586273193
1772740692281644800,8.615644775390624,-0.38193225860595703,0.2510582208633423,-0.5013529062271118
1772740692300430300,8.634430419921875,-0.37353309988975525,0.444085955619812,-0.5303681492805481
1772740692319202600,8.65320263671875,-0.28373855352401733,0.337798535823822,-0.3605526089668274
1772740692337962000,8.6719619140625,-0.13591352105140686,0.2644968628883362,-0.22601348161697388
1772740692356747500,8.69074755859375,0.022754060104489326,0.24189551174640656,-0.18783552944660187
1772740692375520000,8.70952001953125,0.1704263836145401,0.1301104724407196,-0.10216420143842697
1772740692394279200,8.728279052734376,0.32008397579193115,0.10094250738620758,0.13240113854408264
1772740692413064700,8.747064697265625,0.4330907166004181,-0.0590994730591774,0.39857783913612366
1772740692431837200,8.765837158203125,0.3739912211894989,-0.11270131915807724,0.543806791305542
1772740692450609700,8.784609619140625,0.2501419484615326,0.008704573847353458,0.5676298141479492
1772740692469382100,8.803382080078125,0.15057384967803955,0.10353861004114151,0.5998520255088806
1772740692488154400,8.822154296875,0.07498150318861008,0.08338065445423126,0.746913492679596
1772740692506913800,8.840913818359375,0.023823043331503868,0.20600824058055878,0.8797727823257446
1772740692525699300,8.85969921875,0.10781454294919968,0.3820849657058716,0.8232693672180176
1772740692544471800,8.878471923828124,0.19318044185638428,0.40361732244491577,0.6464291214942932
1772740692563231000,8.89723095703125,0.20371755957603455,-0.10201149433851242,0.6117635369300842
1772740692582016500,8.9160166015625,0.18157434463500977,-0.8551861643791199,0.5679352283477783
1772740692600789000,8.9347890625,-0.03161134570837021,-0.911078691482544,-0.03542914241552353
1772740692619548400,8.95354833984375,-0.3361186981201172,-0.34283801913261414,-1.1140327453613281
1772740692638334000,8.972333984375,-0.3077143132686615,-0.14171656966209412,-1.5851486921310425
1772740692657106200,8.991106201171876,-0.125987246632576,-0.6646018028259277,-0.9136747717857361
1772740692675878700,9.009878662109376,0.1960819661617279,-0.8609892129898071,-0.018936265259981155
1772740692694651100,9.028651123046876,0.6201626658439636,-0.6872031688690186,-0.02764083817601204
1772740692713423600,9.047423583984376,0.7887565493583679,-0.2689255177974701,-0.5485408306121826
1772740692732182800,9.066182861328125,0.5940489768981934,-0.2861819267272949,-0.7947123050689697
1772740692750968300,9.08496826171875,0.28160059452056885,-0.4619532525539398,-0.6033644080162048
1772740692769740800,9.10374072265625,0.09009996801614761,-0.4109475016593933,-0.26251161098480225
1772740692788500200,9.122500244140625,-0.0525328628718853,-0.25380703806877136,0.013896775431931019
1772740692807285800,9.14128564453125,-0.19363857805728912,0.0018325417768210173,0.2047865390777588
1772740692826058000,9.16005810546875,-0.3151971995830536,0.32374903559684753,0.2483094036579132
1772740692844817400,9.1788173828125,-0.5221216678619385,0.48669254779815674,0.19959434866905212
1772740692863603000,9.19760302734375,-0.7223268747329712,0.4002576768398285,0.1522536724805832
1772740692882375400,9.21637548828125,-0.6213843822479248,0.23807771503925323,0.3242071866989136
1772740692901134600,9.235134521484374,-0.3709369897842407,-0.3208475112915039,0.4546230733394623
1772740692919920000,9.253920166015625,-0.3049654960632324,-0.5230379700660706,0.2999260127544403
1772740692938692600,9.272692626953125,-0.24708771705627441,-0.43477052450180054,0.14339639246463776
1772740692957452000,9.2914521484375,-0.17317520081996918,-0.4471401870250702,0.2098260372877121
1772740692976237600,9.310237548828125,-0.15484978258609772,-0.4619532525539398,0.4677563011646271
1772740692995009800,9.329009765625,-0.23960483074188232,-0.3749074935913086,0.5819846987724304
1772740693013769200,9.347769287109376,-0.3196258246898651,-0.3486410677433014,0.5833591222763062
1772740693032554800,9.3665546875,-0.27747735381126404,-0.42163732647895813,0.43049460649490356
1772740693051327200,9.3853271484375,-0.3274141252040863,-0.59023118019104,0.3877353072166443
1772740693070086700,9.404086669921876,-0.5428904891014099,-0.5118899941444397,0.37383851408958435
1772740693088872000,9.422871826171875,-0.5166240930557251,-0.6688777208328247,0.15515519678592682
1772740693107644400,9.44164453125,-0.20631365478038788,-0.6320741772651672,-0.16874656081199646
1772740693126403800,9.46040380859375,0.07040014863014221,-0.4143071472644806,-0.7107207775115967
1772740693145189400,9.479189453125,0.19837264716625214,-0.10308047384023666,-0.7968502640724182
1772740693163961900,9.4979619140625,0.27289602160453796,0.13774605095386505,-0.45950984954833984
1772740693182721000,9.516720947265625,0.3187095522880554,0.18111620843410492,-0.29381752014160156
1772740693201506600,9.535506591796874,0.26373329758644104,0.1566823273897171,-0.2648022770881653
1772740693220279000,9.554279052734374,0.06352811306715012,0.20677179098129272,-0.296108216047287
1772740693239038500,9.57303857421875,-0.051769305020570755,0.19837264716625214,-0.4414898455142975
1772740693257824000,9.591823974609374,0.01695101149380207,0.29503923654556274,-0.6413896083831787
1772740693276596500,9.610596435546874,0.1104106456041336,0.3626905679702759,-0.6693359017372131
1772740693295355600,9.629355712890625,0.15622419118881226,0.365286648273468,-0.3480302393436432
1772740693314141200,9.64814111328125,0.182643324136734,0.3762819170951843,0.15210096538066864
1772740693332913700,9.66691357421875,0.1620272397994995,0.41354358196258545,0.4679090082645416
1772740693351673000,9.685673095703125,0.11392301321029663,0.32191649079322815,0.4793623983860016
1772740693370458600,9.704458740234376,0.03512371703982353,0.22570806741714478,0.40254834294319153
1772740693389230800,9.72323095703125,-0.0984991192817688,0.17256435751914978,0.4214846193790436
1772740693407990300,9.741990234375,-0.18569757044315338,0.18142163753509521,0.44301697611808777
1772740693426775800,9.76077587890625,-0.21257483959197998,0.3590254783630371,0.4750864505767822
1772740693445548300,9.77954833984375,-0.24311721324920654,0.6296308040618896,0.7337802648544312
1772740693464320800,9.79832080078125,-0.1682884246110916,1.080436110496521,1.077839970588684
1772740693483093000,9.817093017578125,0.01572931744158268,0.5931326746940613,0.9648332595825195
1772740693501865500,9.835865478515625,-0.05329642444849014,0.2414373755455017,0.5447230339050293
1772740693520625000,9.854625,-0.20600824058055878,0.05619794875383377,-0.16523417830467224
1772740693539410400,9.873410400390625,-0.3568875193595886,-0.02214321307837963,-0.9150491952896118
