time,seconds_elapsed,z,y,x
1772740670661632500,0.122632568359375,-0.16599774360656738,0.3384093940258026,0.7527165412902832
1772740670680404700,0.14140478515625,-0.18279604613780975,0.47646087408065796,0.5167768001556396
1772740670699176700,0.1601767578125,-0.18019993603229523,0.9003888368606567,-0.25563958287239075
1772740670717949200,0.17894921875,0.015271181240677834,0.9187142848968506,-1.1315945386886597
1772740670736721200,0.19772119140625,0.24708771705627441,0.7000309824943542,-1.7535897493362427
1772740670755493400,0.216493408203125,0.23624517023563385,1.2160441875457764,-2.088792085647583
1772740670774265600,0.235265625,-0.2292204350233078,1.1450332403182983,-2.2404351234436035
1772740670793037800,0.254037841796875,-0.7809682488441467,0.13576079905033112,-1.9744110107421875
1772740670811810000,0.27281005859375,-0.8307522535324097,0.19867807626724243,-1.267202615737915
1772740670830582300,0.291582275390625,-0.43232715129852295,0.6621584296226501,-0.6997255086898804
1772740670849354500,0.3103544921875,-0.20875705778598785,0.27503398060798645,-0.6759024858474731
1772740670868126700,0.329126708984375,-0.10750912129878998,0.0856713280081749,-1.0946383476257324
1772740670886898700,0.347898681640625,-0.2026485800743103,0.32909396290779114,-0.8663341403007507
1772740670905671000,0.3666708984375,-0.009315420873463154,-0.20020519196987152,0.05741964280605316
1772740670924443100,0.385443115234375,0.08353336155414581,-0.7771504521369934,1.0085088014602661
1772740670943202300,0.404202392578125,0.06520794332027435,-0.5047125220298767,1.3007992506027222
1772740670961987600,0.422987548828125,-0.012827792204916477,-0.5633538961410522,1.2430741786956787
1772740670980759800,0.441759765625,-0.07528692483901978,-0.37857258319854736,0.9616262912750244
1772740670999519000,0.46051904296875,-0.07650861889123917,-0.25533416867256165,0.9834640622138977
1772740671018304300,0.47930419921875,-0.04474456235766411,-0.4211791753768921,1.1610679626464844
1772740671037076200,0.498076171875,-0.046577103435993195,-0.435075968503952,1.0815050601959229
1772740671055848700,0.5168486328125,-0.005955760832875967,-0.08643488585948944,0.7029324769973755
1772740671074620700,0.53562060546875,-0.02504473738372326,0.020463382825255394,0.3833066523075104
1772740671093393000,0.554392822265625,0.01695101149380207,0.17286977171897888,0.3694098889827728
1772740671112152000,0.573152099609375,0.17424418032169342,0.5276193022727966,0.4062134325504303
1772740671130937300,0.591937255859375,0.23105297982692719,0.49677154421806335,0.6897992491722107
1772740671149709600,0.61070947265625,0.12751436233520508,0.2620534598827362,0.998735249042511
1772740671168468700,0.62946875,-0.06642963737249374,0.129499614238739,1.0005677938461304
1772740671187254000,0.64825390625,-0.13484452664852142,0.09315420687198639,0.8241856694221497
1772740671206026200,0.667026123046875,-0.2214321345090866,-0.11804623156785965,0.3617742955684662
1772740671224785400,0.685785400390625,-0.5207473039627075,-0.30191126465797424,-0.3042019307613373
1772740671243570700,0.70457080078125,-1.2707149982452393,-0.8725953102111816,-1.1459494829177856
1772740671262342700,0.7233427734375,-1.6054593324661255,-0.8472451567649841,-2.314347505569458
1772740671281101800,0.742101806640625,-1.0621106624603271,-0.3567348122596741,-2.2637999057769775
1772740671299887000,0.76088720703125,-0.26632940769195557,-0.47081053256988525,-0.858393132686615
1772740671318659300,0.779659423828125,0.2933593988418579,-1.1242643594741821,0.10720369219779968
1772740671337431600,0.798431640625,0.642916738986969,-0.9191724061965942,0.15683503448963165
1772740671356203800,0.817203857421875,1.1848909854888916,-0.24128466844558716,-0.05803048983216286
1772740671374976000,0.83597607421875,1.3000357151031494,0.16874656081199646,0.05024218559265137
1772740671393735200,0.854735107421875,0.8884773254394531,0.0922379344701767,0.5859552621841431
1772740671412520400,0.8735205078125,0.5635066032409668,-0.18371231853961945,1.0584455728530884
1772740671431292700,0.892292724609375,0.47615543007850647,0.20493926107883453,1.3200409412384033
1772740671450051800,0.9110517578125,0.5012001991271973,0.2742704153060913,1.3174448013305664
1772740671468836900,0.9298369140625,0.40514445304870605,0.3826957941055298,1.1662601232528687
1772740671487609000,0.948609130859375,0.2910687327384949,0.42392799258232117,1.0813523530960083
1772740671506368300,0.9673681640625,0.21165858209133148,0.41293275356292725,0.9588775038719177
1772740671525153500,0.986153564453125,0.18661384284496307,0.34421244263648987,0.816550076007843
1772740671543925800,1.00492578125,0.16966283321380615,0.05986303091049194,0.6891884207725525
1772740671562698000,1.023697998046875,0.06642963737249374,0.10720369219779968,0.4443913698196411
1772740671581470200,1.04247021484375,-0.07482878863811493,0.35627666115760803,0.15546062588691711
1772740671600242400,1.061242431640625,-0.19027891755104065,0.49173203110694885,-0.013591351918876171
1772740671619014700,1.0800146484375,-0.4402681589126587,0.367730051279068,0.06306997686624527
1772740671637787000,1.098786865234375,-0.4909684956073761,0.21379654109477997,0.06398624926805496
1772740671656559000,1.11755908203125,-0.556939959526062,0.4008685052394867,0.04749337583780289
1772740671675331300,1.136331298828125,-0.5899257659912109,0.682774543762207,0.01695101149380207
1772740671694103600,1.155103515625,-0.5099047422409058,0.4721849262714386,-0.02626643143594265
1772740671712875800,1.173875732421875,-0.35917818546295166,0.05421269312500954,-0.2507528066635132
1772740671731635000,1.192635009765625,-0.45920443534851074,-0.2585411071777344,-0.6740699410438538
1772740671750420200,1.211420166015625,-0.612527072429657,-0.5024218559265137,-1.3154596090316772
1772740671769192400,1.2301923828125,-0.358720064163208,-0.5002838969230652,-1.3272184133529663
1772740671787951600,1.24895166015625,-0.4706578254699707,0.17775654792785645,-1.3186665773391724
1772740671806737000,1.26773681640625,-0.37567105889320374,0.5847335457801819,-1.2488771677017212
1772740671825509000,1.286509033203125,0.3709369897842407,0.5454866290092468,-0.3029802441596985
1772740671844268300,1.305268310546875,1.2752963304519653,0.22250111401081085,0.5990884304046631
1772740671863053300,1.32405322265625,1.6396667957305908,0.07589777559041977,0.7553126215934753
1772740671881825800,1.34282568359375,1.3009519577026367,0.1954711228609085,0.6911736726760864
1772740671900584700,1.361584716796875,0.6151232123374939,0.20753535628318787,0.5998520255088806
1772740671919370000,1.380369873046875,0.1707318127155304,0.20127417147159576,0.5528167486190796
1772740671938142500,1.399142578125,-0.02504473738372326,0.21058958768844604,0.5972558856010437
1772740671956901400,1.4179013671875,-0.05070032179355621,0.12293300777673721,0.6297835111618042
1772740671975686700,1.436686767578125,0.02076880633831024,-0.030847785994410515,0.48272204399108887
1772740671994459000,1.455458984375,-0.001374406274408102,0.03451287001371384,0.31122666597366333
1772740672013218000,1.474218017578125,-0.033596597611904144,-0.21623992919921875,0.3530697226524353
1772740672032003300,1.49300341796875,-0.042606595903635025,-0.32252734899520874,0.31596073508262634
1772740672050775600,1.511775634765625,0.011453386396169662,-0.20142687857151031,0.016034740954637527
1772740672069547800,1.5305478515625,-0.09300149232149124,-0.19883078336715698,-0.3972034156322479
1772740672088320000,1.549320068359375,-0.3274141252040863,-0.31290650367736816,-0.6470399498939514
1772740672107092200,1.56809228515625,-0.4963133931159973,-0.40453359484672546,-0.742637574672699
1772740672125851400,1.586851318359375,-0.5604523420333862,-0.41888850927352905,-0.7676823139190674
1772740672144636700,1.60563671875,-0.5525113344192505,-0.42759308218955994,-0.7440119385719299
1772740672163409000,1.624408935546875,-0.5299099683761597,-0.2930539846420288,-0.5502206683158875
1772740672182181000,1.64318115234375,-0.4291202127933502,-0.2145601063966751,-0.20677179098129272
1772740672200953300,1.661953369140625,-0.3545968234539032,-0.1432436853647232,0.07742489129304886
1772740672219725600,1.6807255859375,-0.33627140522003174,-0.08246438205242157,0.18218518793582916
1772740672238484700,1.699484619140625,-0.32939937710762024,-0.24250635504722595,0.37948885560035706
1772740672257270000,1.71827001953125,-0.4202629029750824,-0.38636088371276855,0.3151971995830536
1772740672276042200,1.737042236328125,-0.43797749280929565,-0.5607577562332153,-0.008551862090826035
1772740672294801400,1.755801513671875,-0.4891359508037567,-0.8574768304824829,-0.07421794533729553
1772740672313586700,1.774586669921875,-0.7716528177261353,-0.9429954290390015,0.011453386396169662
1772740672332359000,1.79335888671875,-1.0460759401321411,-0.973537802696228,-1.107618808746338
1772740672351118000,1.8121181640625,-1.1067025661468506,-0.07971556484699249,-2.062067747116089
1772740672369903400,1.8309033203125,-0.6574243903160095,0.4424061179161072,-1.2110047340393066
1772740672388675600,1.849675537109375,0.11086877435445786,-0.2892361879348755,-0.18493400514125824
1772740672407434800,1.868434814453125,0.9359707236289978,-0.38254308700561523,-0.029473381116986275
1772740672426220000,1.887219970703125,1.5804145336151123,-0.17989452183246613,0.12797249853610992
1772740672444992300,1.9059921875,1.281557559967041,-0.30939415097236633,0.476308137178421
1772740672463751400,1.92475146484375,0.5512896776199341,-0.17180079221725464,0.8092198967933655
1772740672482536700,1.94353662109375,0.31565532088279724,-0.0009162708884105086,1.0680664777755737
1772740672501309000,1.962308837890625,0.1656923145055771,-0.1360662281513214,1.1826002597808838
1772740672520068000,1.981068115234375,-0.047798797488212585,-0.22494450211524963,1.1346487998962402
1772740672538853400,1.999853271484375,-0.14614520967006683,-0.2790044844150543,0.8377770185470581
1772740672557625600,2.01862548828125,-0.08429691940546036,-0.1516428291797638,0.30786702036857605
1772740672576384800,2.037384765625,-0.0916270911693573,-0.06719319522380829,0.0022906772792339325
1772740672595170000,2.056170166015625,-0.15026842057704926,-0.18432316184043884,-0.09590301662683487
1772740672613942300,2.0749423828125,-0.15469707548618317,-0.10078980028629303,-0.23425991833209991
1772740672632701400,2.093701416015625,-0.09269607067108154,0.1841704547405243,-0.5657972693443298
1772740672651486700,2.11248681640625,-0.03374931216239929,0.4172086715698242,-0.80280601978302
1772740672670259000,2.131259033203125,-0.04840964451432228,0.4399627447128296,-0.7408050298690796
1772740672689031400,2.150031494140625,-0.04688252881169319,0.24678228795528412,-0.46042612195014954
1772740672707803600,2.1688037109375,-0.01511846948415041,0.2533488869667053,-0.3831539452075958
1772740672726575900,2.187575927734375,0.10384403169155121,0.34405970573425293,-0.2727433145046234
1772740672745334800,2.206334716796875,0.24128466844558716,0.23914669454097748,-0.014965757727622986
1772740672764120300,2.225120361328125,0.31168481707572937,0.04153761267662048,0.2976353168487549
1772740672782892500,2.243892578125,0.2495311051607132,-0.25472331047058105,-0.0009162708884105086
1772740672801651700,2.262651611328125,0.0522274412214756,-0.6420004963874817,-0.8298360109329224
1772740672820437000,2.28143701171875,-0.1522536724805832,-0.7792884111404419,-1.3128634691238403
1772740672839209200,2.300209228515625,-0.02076880633831024,-0.20524467527866364,-1.1016629934310913
1772740672857968400,2.318968505859375,0.24785128235816956,0.04092676565051079,-0.5456393361091614
1772740672876753700,2.337753662109375,0.43950459361076355,-0.08887827396392822,0.6325323581695557
1772740672895526000,2.35652587890625,0.7508839964866638,-0.012980503961443901,1.2788087129592896
1772740672914285000,2.37528515625,1.0527952909469604,0.19531841576099396,1.2607887983322144
1772740672933070300,2.3940703125,0.925739049911499,0.39323291182518005,1.3035480976104736
1772740672951842600,2.412842529296875,0.6157340407371521,0.4497362971305847,1.326149344444275
1772740672970601700,2.431601806640625,0.42667680978775024,0.3217637836933136,1.2374237775802612
1772740672989387000,2.450386962890625,0.45294323563575745,0.14660334587097168,1.3241641521453857
1772740673008159200,2.4691591796875,0.564117431640625,0.07925742864608765,1.4151804447174072
1772740673026918400,2.48791845703125,0.6171084642410278,0.11972606182098389,1.3185137510299683
1772740673045703700,2.50670361328125,0.567018985748291,0.13927318155765533,1.1323580741882324
1772740673064476000,2.525475830078125,0.41507071256637573,0.08200624585151672,1.009577751159668
1772740673083235000,2.544235107421875,0.1904316395521164,0.10689827054738998,0.8822161555290222
1772740673102020400,2.563020263671875,0.012827792204916477,0.23960483074188232,0.700794517993927
1772740673120792600,2.58179248046875,-0.047646086663007736,0.01038440316915512,0.3965925872325897
1772740673139564800,2.600564697265625,-0.12400199472904205,-0.28037887811660767,-0.12629267573356628
1772740673158337000,2.6193369140625,-0.367730051279068,-0.1107160672545433,-0.44698747992515564
1772740673177109200,2.638109130859375,-0.5325061082839966,-0.010689826682209969,-0.4694361090660095
1772740673195881700,2.6568818359375,-0.5457920432090759,-0.07925742864608765,-0.22479179501533508
1772740673214653700,2.67565380859375,-0.6224533319473267,-0.2651077210903168,-0.05238015204668045
1772740673233426000,2.694426025390625,-0.6737645268440247,-0.3477247953414917,-0.20188501477241516
1772740673252185000,2.71318505859375,-0.5798467397689819,-0.33230090141296387,-0.29946786165237427
1772740673270970600,2.731970703125,-0.4002576768398285,-0.4537068009376526,-0.2029540091753006
1772740673289742800,2.750742919921875,-0.49112120270729065,-0.7346965670585632,-0.27411770820617676
1772740673308502000,2.769501953125,-0.6299362182617188,-1.4078502655029297,-0.3199312388896942
1772740673327287300,2.788287353515625,-0.45798271894454956,-2.0408406257629395,-0.10521844029426575
1772740673346059500,2.8070595703125,-0.46760356426239014,-1.6761648654937744,-0.5905365943908691
1772740673364818700,2.825818603515625,-1.032484531402588,-0.4030064642429352,-1.578123927116394
1772740673383604000,2.84460400390625,-1.1638166904449463,0.779593825340271,-1.8184922933578491
1772740673402376200,2.863376220703125,-0.4643966257572174,0.765849769115448,-1.4570233821868896
1772740673421135400,2.88213525390625,0.3718532621860504,-0.08017370104789734,-0.6536065936088562
1772740673439920600,2.900920654296875,0.6090146899223328,-0.3746020793914795,-0.07925742864608765
1772740673458692900,2.91969287109375,0.462564080953598,-0.1698155403137207,0.1763821393251419
1772740673477452000,2.9384521484375,0.24510246515274048,0.25060009956359863,0.3668137788772583
1772740673496237300,2.9572373046875,0.27686652541160583,0.5732801556587219,0.753480076789856
1772740673515009500,2.976009521484375,0.45385950803756714,0.6369609832763672,1.1987876892089844
1772740673533768700,2.994768798828125,0.6077930331230164,0.6331431865692139,1.3475290536880493
1772740673552554000,3.013553955078125,0.7365291118621826,0.5859552621841431,1.209019422531128
1772740673571326500,3.032326416015625,0.7235485911369324,0.5354076027870178,0.9845330715179443
1772740673590085600,3.051085693359375,0.529451847076416,0.5625903010368347,0.6991146802902222
1772740673608871000,3.069870849609375,0.2814478874206543,0.7287407517433167,0.39888325333595276
1772740673627643100,3.08864306640625,0.1178935244679451,0.6597150564193726,0.14186927676200867
1772740673646415400,3.107415283203125,-0.1175880953669548,0.3155026137828827,-0.07773031294345856
1772740673665187600,3.1261875,-0.2420482337474823,0.017561858519911766,-0.3336753249168396
1772740673683959800,3.144959716796875,-0.34573954343795776,-0.1429382562637329,-0.5975613594055176
1772740673702719000,3.163718994140625,-0.4172086715698242,-0.1113269105553627,-0.749204158782959
1772740673721504300,3.182504150390625,-0.4324798583984375,-0.10689827054738998,-0.624896764755249
1772740673740276500,3.2012763671875,-0.37857258319854736,-0.036039989441633224,-0.33886751532554626
1772740673759035600,3.22003564453125,-0.2924431264400482,-0.010842538438737392,-0.05512896552681923
1772740673777821000,3.238821044921875,-0.21425467729568481,0.06169557198882103,0.21791976690292358
1772740673796593200,3.25759326171875,-0.17470231652259827,0.18157434463500977,0.3765873312950134
1772740673815352300,3.276352294921875,-0.19531841576099396,-0.051769305020570755,0.2429644912481308
1772740673834137600,3.2951376953125,-0.30740886926651,-0.6511631608009338,-0.10903623700141907
1772740673852909800,3.313909912109375,-0.4220954477787018,-0.8739697337150574,-0.15439164638519287
1772740673871669000,3.3326689453125,-0.49921491742134094,-0.6760551929473877,-0.4162923991680145
1772740673890454500,3.35145458984375,-0.51998370885849,-0.3118375241756439,-1.653410792350769
1772740673909226800,3.370226806640625,-0.4421007037162781,0.29229041934013367,-1.3852488994598389
1772740673927986000,3.38898583984375,0.08994726091623306,0.6267293095588684,0.4434750974178314
1772740673946771200,3.407771240234375,0.8163973689079285,0.4205683469772339,0.9941539168357849
1772740673965543400,3.42654345703125,1.2252068519592285,0.27808821201324463,0.8438854813575745
1772740673984302600,3.445302490234375,1.0404255390167236,0.3384093940258026,0.9975135922431946
1772740674003088000,3.464087890625,0.5578562617301941,0.34421244263648987,1.23940908908844
1772740674021860000,3.482860107421875,0.33077380061149597,0.42072105407714844,1.2206255197525024
1772740674040619300,3.501619384765625,0.30191126465797424,0.465007483959198,0.9875873327255249
1772740674059404500,3.520404541015625,0.2982461750507355,0.314586341381073,0.674680769443512
1772740674078176800,3.5391767578125,0.256708562374115,0.3295520842075348,0.5059342384338379
1772740674096936000,3.55793603515625,0.2518217861652374,0.21868331730365753,0.5383091568946838
1772740674115721500,3.576721435546875,0.21791976690292358,0.043981000781059265,0.638640820980072
1772740674134493700,3.59549365234375,0.111021488904953,-0.01252236869186163,0.49356457591056824
1772740674153266000,3.614265869140625,-0.08429691940546036,0.02092151902616024,0.14125843346118927
1772740674172038100,3.6330380859375,-0.3151971995830536,0.12552911043167114,-0.31825143098831177
1772740674190810400,3.651810302734375,-0.43385425209999084,0.18676654994487762,-0.6438329815864563
1772740674209582600,3.67058251953125,-0.3915531039237976,0.07452336698770523,-0.5427377820014954
1772740674228354800,3.689354736328125,-0.284654825925827,-0.10170606523752213,-0.29916244745254517
1772740674247127000,3.708126953125,-0.22479179501533508,-0.2017323076725006,-0.35444411635398865
1772740674265886200,3.72688623046875,-0.20784078538417816,-0.12965233623981476,-0.5612159371376038
1772740674284671500,3.74567138671875,-0.27320143580436707,0.019241688773036003,-0.5732801556587219
1772740674303444000,3.76444384765625,-0.2805316150188446,0.010842538438737392,-0.45477578043937683
1772740674322203100,3.783203125,-0.23349636793136597,-0.08735115826129913,-0.4294256269931793
1772740674340988400,3.801988525390625,-0.2583884000778198,-0.13240113854408264,-0.3506263196468353
1772740674359760600,3.8207607421875,-0.22708246111869812,-0.17928366363048553,-0.047646086663007736
1772740674378519800,3.839519775390625,-0.3242071866989136,-0.1966928243637085,-0.1525591015815735
1772740674397305000,3.85830517578125,-0.6983511447906494,-0.3071034550666809,-0.40514445304870605
1772740674416077300,3.877077392578125,-0.5525113344192505,-0.511431872844696,-0.582748293876648
1772740674434836500,3.89583642578125,0.1710372269153595,-0.23288552463054657,-0.7363763451576233
1772740674453621800,3.914621826171875,0.7603521347045898,0.22845686972141266,-0.6055023670196533
1772740674472394000,3.93339404296875,1.1338852643966675,0.32878854870796204,-0.4474456310272217
1772740674491153400,3.9521533203125,1.3169866800308228,0.13514995574951172,-0.26128992438316345
1772740674509938700,3.970938720703125,1.2091721296310425,-0.025655584409832954,-0.19944162666797638
1772740674528711000,3.9897109375,0.7372926473617554,0.2761029601097107,-0.21181128919124603
1772740674547470000,4.008469970703125,0.30817243456840515,0.5667135715484619,-0.0030542362947016954
1772740674566255400,4.02725537109375,0.1785201132297516,0.35978904366493225,0.2608317732810974
1772740674585027600,4.046027587890625,0.08872556686401367,0.47172680497169495,0.22708246111869812
1772740674603786800,4.064786865234375,-0.0029015245381742716,0.40758782625198364,0.1701209545135498
1772740674622572000,4.083572021484375,-0.08078455179929733,0.2101314514875412,0.14583978056907654
1772740674641344500,4.102344482421875,0.006413896102458239,0.2677038013935089,0.05741964280605316
1772740674660103700,4.121103759765625,0.20157960057258606,0.29351210594177246,-0.07482878863811493
1772740674678889000,4.139888916015625,0.32603973150253296,0.18081079423427582,-0.12720894813537598
1772740674697661200,4.1586611328125,0.39201122522354126,0.12125317752361298,-0.04749337583780289
1772740674716433400,4.177433349609375,0.3426853120326996,0.10857810080051422,-0.07391251623630524
1772740674735205600,4.19620556640625,0.16553960740566254,0.12216944992542267,-0.2599155008792877
1772740674753977900,4.214977783203125,-0.01695101149380207,0.06704048812389374,-0.43538138270378113
1772740674772737000,4.233737060546875,-0.13835690915584564,0.09895725548267365,-0.49173203110694885
1772740674791522600,4.2525224609375,-0.1450762301683426,0.12033691257238388,-0.37322768568992615
1772740674810294800,4.271294677734375,-0.1041494607925415,0.15652960538864136,-0.28343313932418823
1772740674829067000,4.29006689453125,-0.06872031837701797,0.2954973578453064,-0.10842538625001907
1772740674847839200,4.308839111328125,0.04611896723508835,0.14813046157360077,0.22250111401081085
1772740674866611500,4.327611572265625,0.07681404054164886,-0.10628741979598999,0.37826716899871826
1772740674885370600,4.34637060546875,0.036039989441633224,-0.2286095917224884,0.21959958970546722
1772740674904156000,4.365156005859375,-0.22784602642059326,-0.27854636311531067,-0.35917818546295166
1772740674922928400,4.383928466796875,-0.6899519562721252,-0.4869979918003082,-1.15114164352417
1772740674941687600,4.4026875,-0.7852441668510437,-0.46867257356643677,-1.3007992506027222
1772740674960472800,4.421472900390625,-0.18936264514923096,-0.4808894991874695,-0.568393349647522
1772740674979245000,4.4402451171875,0.5632011890411377,-0.2151709496974945,0.19837264716625214
1772740674998004200,4.459004150390625,1.141215443611145,-0.16095824539661407,0.6636855602264404
1772740675016789500,4.47778955078125,1.4040324687957764,-0.020157959312200546,0.4549284875392914
1772740675035561700,4.496561767578125,1.314848780632019,-0.03802524134516716,0.13148486614227295
1772740675054321000,4.51532080078125,0.9920159578323364,-0.14843589067459106,-0.005955760832875967
1772740675073106200,4.534106201171875,0.6868977546691895,-0.05375456064939499,-0.14080029726028442
1772740675091878700,4.552878662109375,0.5795413255691528,-0.01695101149380207,-0.08460234850645065
1772740675110637800,4.571637939453125,0.45324867963790894,-0.07605048269033432,0.17531315982341766
1772740675129423000,4.590423095703125,0.35322242975234985,-0.011300674639642239,0.30786702036857605
1772740675148195300,4.6091953125,0.34283801913261414,0.0847550556063652,0.37857258319854736
1772740675166954500,4.62795458984375,0.36971530318260193,0.11361759155988693,0.5123481154441833
1772740675185739800,4.64673974609375,0.3727695345878601,0.11239589750766754,0.6586460471153259
1772740675204512300,4.66551220703125,0.2874036431312561,0.009620844386518002,0.7055285573005676
1772740675223271400,4.684271484375,0.20753535628318787,-0.1375933438539505,0.6284091472625732
1772740675242056700,4.703056640625,0.06963659077882767,-0.12094775587320328,0.41507071256637573
1772740675260829000,4.721828857421875,-0.1513374149799347,-0.11606097966432571,0.22051586210727692
1772740675279601200,4.74060107421875,-0.2985515892505646,-0.14202198386192322,0.03405473381280899
1772740675298373400,4.759373291015625,-0.39140036702156067,-0.10628741979598999,-0.2032594233751297
1772740675317145600,4.7781455078125,-0.47142136096954346,-0.02764083817601204,-0.3903313875198364
1772740675335904800,4.79690478515625,-0.4750864505767822,0.030695075169205666,-0.43049460649490356
1772740675354690300,4.815690185546875,-0.3683409094810486,0.0050394898280501366,-0.32222193479537964
1772740675373462500,4.834462646484375,-0.21868331730365753,-0.025350160896778107,-0.23502348363399506
1772740675392221700,4.8532216796875,-0.15591876208782196,0.091321662068367,-0.28664007782936096
1772740675411007000,4.872007080078125,-0.2304421216249466,0.13056860864162445,-0.45706647634506226
1772740675429779200,4.890779296875,-0.2999260127544403,-0.06398624926805496,-0.4918847680091858
1772740675448538400,4.909538330078125,-0.3046600818634033,-0.20585553348064423,-0.3042019307613373
1772740675467324000,4.928323974609375,-0.5659499764442444,-0.2829749882221222,-0.6061131954193115
1772740675486096100,4.94709619140625,-0.9312366247177124,-0.2047865390777588,-1.424495816230774
1772740675504855300,4.965855224609375,-0.8806890249252319,-0.00992626789957285,-1.5710991621017456
1772740675523640600,4.984640625,-0.6624638438224792,-0.12995775043964386,-0.510515570640564
1772740675542412800,5.003412841796875,-0.555260181427002,0.0647498071193695,0.8666395545005798
1772740675561172000,5.022171875,-0.2017323076725006,0.15805672109127045,1.4235795736312866
1772740675579957200,5.040957275390625,0.2238755226135254,0.27946263551712036,1.1030374765396118
1772740675598729700,5.059729736328125,0.28969430923461914,0.40285375714302063,0.6401679515838623
1772740675617489000,5.078489013671875,0.1719534993171692,0.15240639448165894,0.3432961702346802
1772740675636274200,5.097274169921875,0.13362284004688263,-0.1423274129629135,0.17210622131824493
1772740675655046400,5.11604638671875,0.111632339656353,-0.21410197019577026,0.17286977171897888
1772740675673805600,5.1348056640625,0.05741964280605316,-0.12461283802986145,0.3706315755844116
1772740675692590800,5.1535908203125,0.021990500390529633,0.026724567636847496,0.5900784730911255
1772740675711363300,5.17236328125,0.034818295389413834,0.054365407675504684,0.6459710001945496
1772740675730122500,5.19112255859375,0.0036650835536420345,0.0975828468799591,0.5274665951728821
1772740675748907800,5.20990771484375,-0.06612421572208405,0.1948602795600891,0.3733803927898407
1772740675767680000,5.228679931640625,-0.16615045070648193,0.21593450009822845,0.2367033064365387
1772740675786439200,5.247439208984375,-0.2987042963504791,0.23746687173843384,0.18187977373600006
1772740675805224400,5.266224365234375,-0.3620797097682953,0.03787253051996231,0.21654535830020905
1772740675823996700,5.28499658203125,-0.37948885560035706,-0.26434415578842163,0.188599094748497
1772740675842769200,5.30376904296875,-0.46134239435195923,-0.22189027070999146,0.02244863659143448
1772740675861541400,5.322541259765625,-0.5427377820014954,-0.10964708030223846,-0.22662433981895447
1772740675880313600,5.341313720703125,-0.6282563805580139,-0.03573456406593323,-0.47325390577316284
1772740675899072800,5.36007275390625,-0.6722373962402344,0.11774080991744995,-0.5467082858085632
1772740675917858000,5.378858154296875,-0.5942016839981079,0.08903098851442337,-0.43645036220550537
1772740675936630500,5.397630615234375,-0.50685054063797,-0.007788302376866341,-0.32695600390434265
1772740675955389700,5.4163896484375,-0.4590517282485962,-0.10674555599689484,-0.19455485045909882
1772740675974175000,5.435175048828125,-0.34421244263648987,-0.5108210444450378,-0.24036839604377747
1772740675992947200,5.453947265625,-0.3026748299598694,-0.7466080784797668,-0.6019899845123291
1772740676011706400,5.472706298828125,-0.5457920432090759,-0.728893518447876,-1.2091721296310425
1772740676030491600,5.49149169921875,-1.028208613395691,-0.31443363428115845,-1.629893183708191
1772740676049264000,5.51026416015625,-0.9790354371070862,0.24372805655002594,-1.5361281633377075
1772740676068023300,5.529023193359375,-0.515707790851593,0.1432436853647232,-1.0796725749969482
1772740676086808600,5.54780859375,-0.04810422286391258,0.11667182296514511,-0.4500417113304138
1772740676105580800,5.566580810546875,0.5318952798843384,-0.06169557198882103,-0.1426328420639038
1772740676124340000,5.585340087890625,0.9003888368606567,-0.08322793990373611,-0.10995250940322876
1772740676143125200,5.604125244140625,0.8999307155609131,-0.14843589067459106,-0.046729814261198044
1772740676161897500,5.6228974609375,0.8444963097572327,-0.26846736669540405,0.09972081333398819
1772740676180656600,5.64165673828125,0.8075400590896606,-0.4566083252429962,0.4381301999092102
1772740676199442200,5.660442138671875,0.8241856694221497,-0.7293516397476196,0.7689039707183838
1772740676218214400,5.67921435546875,0.8718317747116089,-0.6000047326087952,0.9008470177650452
1772740676236973600,5.6979736328125,0.833195686340332,-0.31977853178977966,0.8938222527503967
1772740676255758800,5.7167587890625,0.5908420085906982,-0.1188097894191742,0.9000834226608276
1772740676274531000,5.735531005859375,0.3649812340736389,0.039857782423496246,0.9657495021820068
1772740676293290500,5.75429052734375,0.2576248347759247,0.0656660795211792,1.0531007051467896
1772740676312075800,5.77307568359375,0.13682979345321655,0.058335911482572556,1.118308663368225
1772740676330848000,5.791847900390625,-0.08704573661088943,0.038483377546072006,1.0573766231536865
1772740676349607200,5.810607177734375,-0.4355340898036957,-0.004886778071522713,0.8072346448898315
1772740676368392400,5.829392333984375,-0.7603521347045898,-0.0328330397605896,0.35322242975234985
1772740676387165000,5.8481650390625,-0.9411629438400269,0.03436015918850899,-0.08765657991170883
1772740676405937200,5.866937255859375,-1.0205730199813843,0.12110047042369843,-0.2620534598827362
1772740676424709400,5.88570947265625,-0.9681929349899292,0.12323843687772751,-0.2811424434185028
1772740676443481600,5.904481689453125,-0.7690566778182983,-0.03451287001371384,-0.16935740411281586
1772740676462240800,5.92324072265625,-0.6806365847587585,-0.0719272643327713,-0.15118469297885895
1772740676481026300,5.9420263671875,-0.705681324005127,0.04443913698196411,-0.21654535830020905
1772740676499798500,5.960798583984375,-0.610541820526123,-0.016645587980747223,-0.3855973184108734
1772740676518557700,5.9795576171875,-0.3781144618988037,-0.06047387793660164,-0.5767925381660461
1772740676537343000,5.998343017578125,-0.33169007301330566,-0.217308908700943,-0.6395570635795593
1772740676556115200,6.017115234375,-0.5289937257766724,-0.14889401197433472,-0.9368869662284851
1772740676574874400,6.035874267578125,-0.8645015954971313,0.20539739727973938,-1.8065807819366455
1772740676593660000,6.054659912109375,-1.0364550352096558,0.8182299137115479,-2.329313278198242
1772740676612432100,6.07343212890625,-0.9359707236289978,1.7641268968582153,-1.5541481971740723
1772740676631191300,6.09219140625,-0.4492781460285187,1.7969598770141602,-0.5210527181625366
1772740676649976600,6.1109765625,-0.006261184345930815,1.1102149486541748,0.15469707548618317
1772740676668749000,6.1297490234375,0.33886751532554626,0.6734591126441956,0.47920966148376465
1772740676687508200,6.14850830078125,0.5193728804588318,0.24647687375545502,0.872137188911438
1772740676706293500,6.16729345703125,0.31321191787719727,-0.017561858519911766,1.0193513631820679
1772740676725065700,6.186065673828125,-0.0328330397605896,-0.14843589067459106,0.8243383765220642
1772740676743825000,6.204824951171875,-0.2793098986148834,-0.20692451298236847,0.6190937161445618
1772740676762610400,6.2236103515625,-0.282364159822464,-0.3778090178966522,0.5534276366233826
1772740676781382700,6.242382568359375,-0.1328592747449875,-0.3304683566093445,0.6244385838508606
1772740676800141800,6.261141845703125,-0.05482354015111923,-0.2160872220993042,0.658951461315155
1772740676818927000,6.279927001953125,-0.059710320085287094,-0.16935740411281586,0.6586460471153259
1772740676837699300,6.29869921875,-0.18111620843410492,-0.20677179098129272,0.7498149871826172
1772740676856458500,6.31745849609375,-0.4049917459487915,-0.12216944992542267,0.7815790772438049
1772740676875244000,6.336244140625,-0.5120427012443542,0.08704573661088943,0.6644490957260132
1772740676894016300,6.355016357421875,-0.4608842432498932,0.284196674823761,0.4367557764053345
1772740676912788500,6.37378857421875,-0.39506545662879944,0.28221142292022705,0.23425991833209991
1772740676931560700,6.392560791015625,-0.38956785202026367,0.11606097966432571,0.15118469297885895
1772740676950333200,6.411333251953125,-0.460273414850235,0.05757235363125801,0.03894151374697685
1772740676969105400,6.43010546875,-0.5231906771659851,-0.022601349279284477,-0.1050657257437706
1772740676987877600,6.448877685546875,-0.555565595626831,-0.023975754156708717,-0.07773031294345856
1772740677006649900,6.46764990234375,-0.555565595626831,-0.00030542362947016954,-0.050394900143146515
1772740677025409000,6.486408935546875,-0.5610632300376892,0.04963133856654167,-0.15897299349308014
1772740677044194600,6.505194580078125,-0.5092939138412476,0.045355409383773804,-0.1954711228609085
1772740677062966800,6.523966796875,-0.3318427801132202,-0.4485146105289459,0.31031039357185364
1772740677081726000,6.542725830078125,-0.4133908748626709,-1.332257866859436,1.1760337352752686
1772740677100511200,6.56151123046875,-0.6606312990188599,-1.9431051015853882,0.2973299026489258
1772740677119283700,6.58028369140625,-0.20432840287685394,-1.9595980644226074,-1.991514801979065
1772740677138043000,6.59904296875,0.6116108298301697,-1.6407357454299927,-2.898164749145508
1772740677156828200,6.617828125,1.186418056488037,-1.2852226495742798,-2.4600346088409424
1772740677175600400,6.636600341796875,1.2966760396957397,-1.0468394756317139,-1.1305255889892578
1772740677194359800,6.65535986328125,1.1842801570892334,-1.060430884361267,0.23319093883037567
1772740677213145000,6.67414501953125,0.9252808690071106,-0.6192464232444763,0.38544461131095886
1772740677231917300,6.692917236328125,0.5170822143554688,0.15652960538864136,0.03237490355968475
1772740677250676500,6.711676513671875,0.07757759839296341,0.6117635369300842,-0.003970507066696882
1772740677269461800,6.730461669921875,-0.08719844371080399,0.6042806506156921,0.09956810623407364
1772740677288234200,6.749234130859375,0.010537114925682545,0.4369085133075714,0.17271706461906433
1772740677306993400,6.767993408203125,-0.030847785994410515,0.3524588644504547,0.25350162386894226
1772740677325778700,6.78677880859375,-0.25655585527420044,0.3802524209022522,0.31977853178977966
1772740677344551000,6.805551025390625,-0.3749074935913086,0.38941511511802673,0.35856732726097107
1772740677363310000,6.82431005859375,-0.41766682267189026,0.4915793240070343,0.42667680978775024
1772740677382095600,6.843095703125,-0.4811949133872986,0.5572454333305359,0.611152708530426
1772740677400867800,6.861867919921875,-0.45950984954833984,0.36635565757751465,0.8134958148002625
1772740677419627000,6.880626953125,-0.39796698093414307,0.2990097403526306,0.7143858671188354
1772740677438412500,6.89941259765625,-0.33886751532554626,0.20661908388137817,0.4543176591396332
1772740677457184800,6.918184814453125,-0.33031564950942993,0.12644538283348083,0.19745637476444244
1772740677475957000,6.93695703125,-0.27854636311531067,0.10155335813760757,0.013438640162348747
1772740677494729200,6.955729248046875,-0.25350162386894226,-0.11270131915807724,-0.1113269105553627
1772740677513501700,6.974501708984375,-0.3608580231666565,0.02993151545524597,-0.1382041871547699
1772740677532274000,6.99327392578125,-0.3871244490146637,0.0325276181101799,-0.04474456235766411
1772740677551046100,7.012046142578125,-0.314586341381073,0.10934165865182877,-0.03558185324072838
1772740677569818400,7.030818359375,-0.29381752014160156,0.20722992718219757,-0.07711946964263916
1772740677588577500,7.04957763671875,-0.2767138183116913,0.2360924631357193,-0.02626643143594265
1772740677607363000,7.068363037109375,-0.19501298666000366,0.2095206081867218,-0.013285927474498749
1772740677626135300,7.08713525390625,-0.13270656764507294,0.1298050433397293,-0.08307522535324097
1772740677644894500,7.10589453125,-0.25472331047058105,-0.1695101112127304,-0.049020491540431976
1772740677663680000,7.124679931640625,-0.6203153729438782,-0.7267554998397827,0.14629791676998138
1772740677682452200,7.1434521484375,-1.0654703378677368,-0.6529957056045532,-0.4637857675552368
1772740677701211400,7.16221142578125,-1.056002140045166,0.4337015450000763,-1.1897777318954468
1772740677719996700,7.18099658203125,-0.34818294644355774,0.02870982140302658,-0.35978904366493225
1772740677738769200,7.19976904296875,0.26464956998825073,-0.7247702479362488,0.7736380696296692
1772740677757528300,7.2185283203125,0.5489989519119263,-0.6003101468086243,0.6513158679008484
1772740677776313600,7.237313720703125,0.7285880446434021,-0.3709369897842407,0.0018325417768210173
1772740677795085800,7.2560859375,0.6784985661506653,-0.275186687707901,-0.17454960942268372
1772740677813845200,7.27484521484375,0.29946786165237427,-0.19348587095737457,0.0981936976313591
1772740677832630500,7.293630615234375,0.0024433890357613564,-0.31687700748443604,0.17836740612983704
1772740677851402800,7.31240283203125,-0.15454435348510742,-0.0984991192817688,-0.01572931744158268
1772740677870162000,7.331161865234375,-0.13805148005485535,0.006108472589403391,0.016492875292897224
1772740677888947500,7.349947509765625,-0.07207997888326645,-0.09865183383226395,0.3558185398578644
1772740677907719700,7.3687197265625,0.04016320779919624,0.04611896723508835,0.4683671295642853
1772740677926478800,7.387478759765625,0.13347013294696808,0.1969982385635376,0.39445462822914124
1772740677945264400,7.406264404296875,0.16874656081199646,0.23380178213119507,0.22341738641262054
1772740677964036600,7.42503662109375,0.22372281551361084,0.21364383399486542,0.13652436435222626
1772740677982795800,7.443795654296875,0.2626643180847168,0.18585027754306793,-0.0010689827613532543
1772740678001581000,7.4625810546875,0.20585553348064423,0.1172826737165451,-0.10078980028629303
1772740678020353500,7.481353515625,0.10766182839870453,0.08292251825332642,-0.27411770820617676
1772740678039125800,7.500125732421875,0.05024218559265137,0.09636115282773972,-0.5059342384338379
1772740678057898000,7.51889794921875,0.004886778071522713,0.14186927676200867,-0.6974348425865173
1772740678076670500,7.53767041015625,-0.06658235192298889,0.16538690030574799,-0.7572978734970093
1772740678095429600,7.5564296875,-0.06765133142471313,0.12797249853610992,-0.7368345260620117
1772740678114215000,7.57521484375,-0.042759306728839874,0.197609081864357,-0.7889092564582825
1772740678132987100,7.593987060546875,0.045202698558568954,0.19898349046707153,-0.5592306852340698
1772740678151759600,7.612759521484375,0.10628741979598999,0.1560714691877365,-0.42224815487861633
1772740678170531800,7.63153173828125,0.25350162386894226,0.021685076877474785,-0.21776704490184784
1772740678189304000,7.650303955078125,0.50685054063797,-0.09483403712511063,-0.04169032722711563
1772740678208063200,7.669063232421875,0.5732801556587219,0.0012216945178806782,-0.09284878522157669
1772740678226848800,7.687848876953125,0.3164188861846924,-0.07864658534526825,0.049020491540431976
1772740678245621000,7.70662109375,-0.2044811248779297,-0.42041563987731934,0.013133215717971325
1772740678264380200,7.725380126953125,-0.36452311277389526,-0.5285356044769287,-0.705681324005127
1772740678283165700,7.744165771484375,-0.1501157134771347,-0.20371755957603455,-1.2386455535888672
1772740678301938000,7.76293798828125,0.053143709897994995,-0.24311721324920654,-0.9932376146316528
1772740678320697000,7.781697021484375,0.1763821393251419,0.05604523420333862,-0.5832064151763916
1772740678339482400,7.800482421875,0.540905237197876,-0.00030542362947016954,-0.30404922366142273
1772740678358254800,7.8192548828125,0.8278507590293884,0.025502873584628105,-0.08903098851442337
1772740678377014000,7.838013916015625,0.8307522535324097,0.14080029726028442,0.08032641559839249
1772740678395799300,7.85679931640625,0.6905628442764282,0.10185877978801727,0.23273280262947083
1772740678414571800,7.87557177734375,0.6015318632125854,0.12613995373249054,0.42240089178085327
1772740678433331000,7.8943310546875,0.5118899941444397,0.3524588644504547,0.8796200752258301
1772740678452116200,7.9131162109375,0.3581092059612274,0.46485477685928345,1.246586561203003
1772740678470888700,7.931888671875,0.22280654311180115,0.36070531606674194,1.466338872909546
1772740678489647900,7.95064794921875,0.008093725889921188,0.3127537965774536,1.3910518884658813
1772740678508433200,7.96943310546875,-0.1519482582807541,0.3906368315219879,1.0100359916687012
1772740678527205600,7.98820556640625,-0.129499614238739,0.35383328795433044,0.6453601121902466
1772740678545964800,8.00696484375,-0.08689302206039429,0.2629697322845459,0.48486000299453735
1772740678564750000,8.02575,-0.08322793990373611,0.21471281349658966,0.358720064163208
1772740678583522600,8.0445224609375,-0.07406523078680038,0.13560809195041656,0.1713426560163498
1772740678602294800,8.063294677734374,-0.08322793990373611,0.08124268800020218,-0.00030542362947016954
1772740678621067000,8.08206689453125,-0.10949437320232391,0.011606098152697086,-0.13469181954860687
1772740678639839500,8.100839599609374,-0.12354385852813721,-0.12430741637945175,-0.26663482189178467
1772740678658598700,8.1195986328125,-0.08383878320455551,-0.11010521650314331,-0.3239017724990845
1772740678677384000,8.138384033203126,0.059557609260082245,-0.16767756640911102,-0.2651077210903168
1772740678696156400,8.157156494140626,0.18585027754306793,-0.17745113372802734,-0.2698417901992798
1772740678714928600,8.1759287109375,0.27503398060798645,-0.14782503247261047,-0.16706672310829163
1772740678733700900,8.194700927734376,0.37826716899871826,-0.2480039894580841,0.005803049076348543
1772740678752473300,8.213473388671876,0.4130854606628418,-0.3962871730327606,0.043828289955854416
1772740678771232500,8.232232421875,0.4052971601486206,-0.6340594291687012,-0.09804098308086395
1772740678790017800,8.251017822265625,0.2289150059223175,-0.7937960028648376,-0.3477247953414917
1772740678808790000,8.2697900390625,-0.1441599577665329,-0.7800519466400146,-0.8596147894859314
1772740678827549400,8.288549560546874,-0.8196043372154236,-0.34070006012916565,-1.9037054777145386
1772740678846334700,8.307334716796875,-1.0721896886825562,0.06047387793660164,-2.4603400230407715
1772740678865107000,8.32610693359375,-0.5419742465019226,-0.11682453751564026,-1.5145957469940186
1772740678883866400,8.344866455078124,-0.01695101149380207,-0.3142809271812439,-0.8365553021430969
1772740678902651600,8.363651611328125,0.50853031873703,-0.3646758198738098,-0.938872218132019
1772740678921424000,8.382423828125,0.7977665066719055,-0.3567348122596741,-0.9347490072250366
1772740678940183300,8.401183349609376,0.5299099683761597,-0.2145601063966751,-0.6090146899223328
1772740678958968600,8.419968505859375,0.24876753985881805,-0.19027891755104065,-0.08139539510011673
1772740678977740800,8.43874072265625,0.19409671425819397,-0.14996300637722015,0.46393850445747375
1772740678996500200,8.457500244140626,0.1898207813501358,0.08170082420110703,0.8782456517219543
1772740679015285500,8.476285400390625,0.1910424828529358,0.42224815487861633,1.1302201747894287
1772740679034057700,8.4950576171875,0.15622419118881226,0.5392253994941711,1.287207841873169
1772740679052817200,8.513817138671875,0.12323843687772751,0.455539345741272,1.2299410104751587
1772740679071602400,8.5326025390625,0.031000498682260513,0.5033381581306458,0.9071081876754761
1772740679090374700,8.551374755859374,-0.07773031294345856,0.525175929069519,0.6694886088371277
1772740679109134000,8.570134033203125,-0.055739812552928925,0.34604495763778687,0.6207735538482666
1772740679127919400,8.58891943359375,-0.03298575058579445,0.08521319180727005,0.5128062963485718
1772740679146691800,8.60769189453125,-0.12216944992542267,0.03268032893538475,0.19684553146362305
1772740679165464000,8.626464111328126,-0.3029802441596985,0.1426328420639038,-0.20035789906978607
1772740679184236300,8.645236328125,-0.4318690001964569,0.22631891071796417,-0.33566057682037354
1772740679203008800,8.6640087890625,-0.3987305462360382,0.11667182296514511,-0.14782503247261047
1772740679221781000,8.682781005859376,-0.3689517378807068,0.12491826713085175,-0.13056860864162445
1772740679240553200,8.70155322265625,-0.3139754831790924,0.17485502362251282,-0.16615045070648193
1772740679259325400,8.720325439453125,-0.22311195731163025,0.20875705778598785,-0.09498675167560577
1772740679278098000,8.739097900390625,-0.11499200016260147,0.1829487532377243,0.00519220158457756
1772740679296870100,8.7578701171875,-0.0331384651362896,0.08093725889921188,0.09620844572782516
1772740679315642400,8.776642333984375,-0.02886253222823143,0.18646112084388733,0.18844637274742126
1772740679334401800,8.79540185546875,0.03649812191724777,0.017561858519911766,0.20936790108680725
1772740679353187000,8.81418701171875,-0.008551862090826035,-0.40102121233940125,0.04932591691613197
1772740679371959300,8.832959228515625,-0.13240113854408264,-0.5326588153839111,0.07650861889123917
1772740679390718700,8.85171875,-0.2805316150188446,-0.3208475112915039,0.3846810758113861
1772740679409504000,8.87050390625,-0.3880407214164734,0.3252761662006378,-0.3083251416683197
1772740679428276500,8.8892763671875,-0.1951656937599182,0.9684983491897583,-0.9071081876754761
1772740679447035600,8.90803564453125,0.04810422286391258,0.7180509567260742,-0.24250635504722595
1772740679465821000,8.926821044921875,0.23410721123218536,-0.00519220158457756,0.12018419802188873
1772740679484593400,8.945593505859375,0.4049917459487915,-0.23303823173046112,-0.28251686692237854
1772740679503352600,8.9643525390625,0.35765108466148376,-0.018019994720816612,-0.6907155513763428
1772740679522137900,8.983137939453124,0.31977853178977966,0.2176143378019333,-0.6003101468086243
1772740679540910300,9.001910400390624,0.270452618598938,0.23975755274295807,-0.16676130890846252
1772740679559669500,9.02066943359375,0.35627666115760803,-0.020310672000050545,0.23258009552955627
1772740679578454800,9.039454833984376,0.6413896083831787,0.020005248486995697,0.5928272604942322
1772740679597227300,9.058227294921876,0.8452599048614502,0.023823043331503868,0.7977665066719055
1772740679615986400,9.076986328125,0.7847860455513,0.03649812191724777,0.8321266770362854
1772740679634771700,9.095771728515626,0.5468609929084778,0.034665580838918686,0.8619054555892944
1772740679653544200,9.114544189453126,0.29839888215065,0.01695101149380207,0.7401941418647766
1772740679672303400,9.133303466796875,0.07742489129304886,0.028251685202121735,0.3399364948272705
1772740679691089000,9.1520888671875,-0.09910997003316879,0.017561858519911766,-0.02764083817601204
1772740679709861000,9.170861083984375,-0.22433365881443024,0.06261184066534042,-0.18081079423427582
1772740679728633300,9.18963330078125,-0.22494450211524963,0.055587101727724075,-0.23899398744106293
1772740679747405800,9.20840576171875,-0.23716144263744354,0.05787777900695801,-0.2507528066635132
1772740679766178000,9.227177978515625,-0.24494975805282593,0.06978929787874222,-0.18905723094940186
1772740679784950300,9.2459501953125,-0.16935740411281586,0.11896250396966934,-0.19119518995285034
1772740679803722800,9.26472265625,-0.1169772520661354,0.1820324808359146,-0.17256435751914978
1772740679822495000,9.283494873046875,-0.10521844029426575,0.07238540053367615,-0.13774605095386505
1772740679841267500,9.302267333984375,-0.03695625811815262,0.072843536734581,-0.18722468614578247
1772740679860039700,9.321039794921875,-0.0004581354442052543,0.10216420143842697,-0.40514445304870605
1772740679878812000,9.33981201171875,0.027182703837752342,-0.17378604412078857,-0.5008947253227234
1772740679897571000,9.358571044921876,0.010842538438737392,-0.46668729186058044,-0.3252761662006378
1772740679916356600,9.377356689453125,-0.18554484844207764,-0.5398362874984741,-0.30038413405418396
1772740679935128800,9.39612890625,-0.4706578254699707,-0.6109999418258667,-0.6421532034873962
1772740679953888000,9.414887939453125,-0.5648810267448425,-0.22692975401878357,-0.7551599144935608
1772740679972673500,9.433673583984374,-0.24601873755455017,0.22616620361804962,-0.8347227573394775
1772740679991445800,9.45244580078125,0.15683503448963165,0.23059484362602234,-0.5183038711547852
1772740680010205200,9.471205078125,0.39827242493629456,-0.21853061020374298,-0.05986303091049194
1772740680028990500,9.489990478515624,0.5581616759300232,-0.26846736669540405,-0.16966283321380615
1772740680047762700,9.5087626953125,0.6372663974761963,0.037567105144262314,-0.3245126008987427
1772740680066522000,9.527522216796875,0.4030064642429352,0.32313820719718933,0.1754658818244934
1772740680085307400,9.546307373046876,0.17561858892440796,0.1585148572921753,0.7307260632514954
1772740680104079600,9.56507958984375,0.06658235192298889,0.17989452183246613,0.8857285380363464
1772740680122839000,9.583839111328125,0.00030542362947016954,0.399952232837677,0.6000047326087952
1772740680141624300,9.602624267578125,0.0844496339559555,0.3787252902984619,0.2654131352901459
1772740680160396800,9.621396728515625,0.18707197904586792,0.2701472043991089,0.24632415175437927
1772740680179156000,9.640156005859374,0.17806197702884674,0.18401773273944855,0.4156815707683563
1772740680197941200,9.658941162109375,0.15805672109127045,0.06398624926805496,0.5572454333305359
1772740680216713700,9.677713623046875,0.13240113854408264,0.0713164210319519,0.48455458879470825
1772740680235473000,9.696472900390624,0.13530266284942627,-0.0331384651362896,0.3089359998703003
1772740680254258200,9.715258056640625,0.05482354015111923,-0.13117945194244385,0.1459924876689911
1772740680273030700,9.73403076171875,-0.03436015918850899,-0.14843589067459106,0.059557609260082245
1772740680291803000,9.752802978515625,-0.15271180868148804,-0.20631365478038788,-0.10094250738620758
1772740680310575400,9.771575439453125,-0.2473931461572647,-0.14935214817523956,-0.3083251416683197
1772740680329347600,9.79034765625,-0.2993151545524597,-0.06032116711139679,-0.4950917065143585
1772740680348119800,9.809119873046875,-0.36101073026657104,-0.10140064358711243,-0.509141206741333
1772740680366892300,9.827892333984375,-0.31886225938796997,-0.12064233422279358,-0.4140017330646515
1772740680385664500,9.84666455078125,-0.24449162185192108,-0.0459662564098835,-0.42850935459136963
1772740680404423700,9.865423583984375,-0.28664007782936096,0.04443913698196411,-0.36452311277389526
1772740680423209200,9.884209228515624,-0.3921639323234558,0.14935214817523956,-0.15591876208782196
1772740680441981400,9.9029814453125,-0.34848836064338684,-0.39078953862190247,-0.2648022770881653
1772740680460740600,9.92174072265625,-0.28786176443099976,-0.30282753705978394,-0.7740961909294128
1772740680479526100,9.940526123046874,0.02092151902616024,-0.2533488869667053,-0.8741224408149719
1772740680498298400,9.95929833984375,0.04169032722711563,-0.24464432895183563,-0.6358919739723206
