time,seconds_elapsed,z,y,x
1772740695878585600,0.252585693359375,-1.1122770309448242,-8.647759437561035,-1.5395164489746094
1772740695897358000,0.271358154296875,1.5633554458618164,-8.268035888671875,-1.249706745147705
1772740695916130600,0.290130615234375,6.558257579803467,-7.0633697509765625,-1.6995469331741333
1772740695934902800,0.30890283203125,11.451702117919922,-5.849079132080078,-2.434192419052124
1772740695953675300,0.32767529296875,15.303173065185547,-3.8315391540527344,-2.6375136375427246
1772740695972447700,0.34644775390625,16.538896560668945,-2.3147692680358887,-3.135436534881592
1772740695991220200,0.36522021484375,15.254027366638184,-0.7101106643676758,-4.25980806350708
1772740696009992700,0.38399267578125,15.251240730285645,-0.3318929672241211,-4.861928939819336
1772740696028752100,0.402752197265625,15.814807891845703,-0.16826534271240234,-6.7373809814453125
1772740696047537700,0.42153759765625,14.243115425109863,0.07815933227539062,-8.625260353088379
1772740696066310100,0.44031005859375,12.905658721923828,-0.31702518463134766,-8.525337219238281
1772740696085069600,0.459069580078125,11.99268913269043,-0.2935361862182617,-7.431465148925781
1772740696103855000,0.477855224609375,11.056275367736816,-0.8997163772583008,-6.15032958984375
1772740696122627600,0.496627685546875,8.354385375976562,-1.9524035453796387,-5.403960227966309
1772740696141387000,0.515386962890625,5.125888347625732,-3.3276138305664062,-4.991125106811523
1772740696160172500,0.534172607421875,2.445085048675537,-4.657382965087891,-4.532832622528076
1772740696178944800,0.55294482421875,1.1409730911254883,-5.828448295593262,-3.7869315147399902
1772740696197704200,0.5717041015625,1.4455689191818237,-6.916376113891602,-2.8411011695861816
1772740696216489700,0.59048974609375,1.6876884698867798,-8.206321716308594,-2.418721914291382
1772740696235262200,0.60926220703125,1.2870138883590698,-8.859232902526855,-2.4161500930786133
1772740696254034700,0.62803466796875,0.5379840135574341,-9.079459190368652,-2.3732688426971436
1772740696272807200,0.64680712890625,-0.5760312080383301,-9.036762237548828,-2.3319578170776367
1772740696291579600,0.66557958984375,-1.7352640628814697,-8.696090698242188,-2.5143799781799316
1772740696310339000,0.684339111328125,-2.5474860668182373,-8.331706047058105,-2.62969970703125
1772740696329124600,0.70312451171875,-2.3934037685394287,-7.892789363861084,-2.5811855792999268
1772740696347897000,0.72189697265625,-1.9999995231628418,-8.047004699707031,-2.6353821754455566
1772740696366669600,0.740669677734375,-1.7558989524841309,-8.133877754211426,-2.8616116046905518
1772740696385442000,0.759442138671875,-1.1356468200683594,-8.28270149230957,-2.89587140083313
1772740696404214500,0.778214599609375,0.18181729316711426,-8.231895446777344,-2.8641154766082764
1772740696422974000,0.796973876953125,2.6789488792419434,-7.384309768676758,-2.682584524154663
1772740696441759500,0.815759521484375,7.136600971221924,-5.062162399291992,-2.0189313888549805
1772740696460532000,0.834531982421875,13.00988483428955,-1.602747917175293,-2.069823980331421
1772740696479291400,0.85329150390625,16.360519409179688,0.8064374923706055,-3.8457939624786377
1772740696498076700,0.87207666015625,16.68562126159668,2.2451744079589844,-5.1685566902160645
1772740696516849200,0.89084912109375,17.908849716186523,2.553126335144043,-3.8198516368865967
1772740696535608600,0.909608642578125,21.506492614746094,1.1803159713745117,-1.5274626016616821
1772740696554394000,0.92839404296875,23.634214401245117,-0.5384006500244141,-1.0855475664138794
1772740696573166600,0.94716650390625,21.71002769470215,-2.8632678985595703,-1.915175437927246
1772740696591926000,0.965926025390625,16.739200592041016,-4.039799213409424,-3.018630266189575
1772740696610711600,0.984711669921875,12.00210952758789,-4.568533897399902,-3.2966740131378174
1772740696629484000,1.003484130859375,8.339515686035156,-5.377527236938477,-3.1263303756713867
1772740696648243500,1.022243408203125,4.947086334228516,-6.0350799560546875,-2.6532626152038574
1772740696667029000,1.041029052734375,2.1410279273986816,-6.715180397033691,-2.062560558319092
1772740696685801500,1.059801513671875,0.6167752742767334,-7.521426200866699,-1.638401746749878
1772740696704561000,1.078560791015625,0.7376630306243896,-8.61000919342041,-1.6641366481781006
1772740696723346400,1.097346435546875,0.9344482421875,-9.285744667053223,-1.9355852603912354
1772740696742119000,1.116118896484375,-1.1518042087554932,-9.037490844726562,-2.1609201431274414
1772740696760878300,1.13487841796875,-2.951294183731079,-8.44096565246582,-2.2087464332580566
1772740696779664000,1.153663818359375,-2.9746246337890625,-7.76761531829834,-2.2532448768615723
1772740696798436400,1.172436279296875,-2.3235924243927,-7.662764072418213,-2.621767997741699
1772740696817208800,1.191208740234375,-1.9565175771713257,-7.614126682281494,-3.242682933807373
1772740696835981300,1.209981201171875,-2.0845417976379395,-7.664093017578125,-3.6782798767089844
1772740696854753800,1.22875390625,-2.4978079795837402,-7.713420391082764,-4.1349053382873535
1772740696873526300,1.2475263671875,-2.4388558864593506,-7.894730567932129,-4.555882453918457
1772740696892298800,1.266298828125,-1.689731478691101,-7.831170558929443,-4.894632816314697
1772740696911071200,1.2850712890625,0.10565602779388428,-7.446423053741455,-4.982585906982422
1772740696929830700,1.30383056640625,3.262396812438965,-5.344867706298828,-5.309133529663086
1772740696948616200,1.3226162109375,7.737111568450928,-2.0513916015625,-5.604259967803955
1772740696967388700,1.341388671875,10.58298397064209,2.079901695251465,-6.440766334533691
1772740696986147800,1.36014794921875,13.382768630981445,5.945408821105957,-6.046560287475586
1772740697004933600,1.37893359375,19.53725814819336,7.991087913513184,-2.9597442150115967
1772740697023705900,1.397705810546875,26.315834045410156,6.882122039794922,0.08555221557617188
1772740697042465300,1.41646533203125,30.766826629638672,2.976747512817383,0.7310514450073242
1772740697061250800,1.435250732421875,26.08297348022461,-0.4328422546386719,-2.1647298336029053
1772740697080023300,1.454023193359375,17.175552368164062,-1.0507235527038574,-5.03350305557251
1772740697098782700,1.47278271484375,10.405326843261719,-0.9271111488342285,-6.016817569732666
1772740697117568300,1.491568359375,7.049393653869629,-1.598825454711914,-5.507319927215576
1772740697136340700,1.5103408203125,5.135715961456299,-3.226139545440674,-4.392944812774658
1772740697155100200,1.52910009765625,4.337865829467773,-4.817497253417969,-3.4624152183532715
1772740697173885700,1.5478857421875,3.7894206047058105,-5.9294891357421875,-2.895159959793091
1772740697192658200,1.566658203125,3.245100259780884,-6.9468889236450195,-2.7594432830810547
1772740697211417600,1.58541748046875,2.411945104598999,-7.59059476852417,-3.0075175762176514
1772740697230203100,1.604203125,1.1500496864318848,-7.606973171234131,-3.411409616470337
1772740697248975600,1.6229755859375,-0.29828858375549316,-7.348715305328369,-3.7944531440734863
1772740697267735000,1.641735107421875,-1.4560145139694214,-6.992359638214111,-4.096900463104248
1772740697286520600,1.6605205078125,-2.1177849769592285,-6.533052444458008,-4.319664001464844
1772740697305293000,1.67929296875,-2.161320447921753,-6.294675350189209,-4.51381778717041
1772740697324065500,1.6980654296875,-2.0049166679382324,-6.492316246032715,-4.700467586517334
1772740697342838000,1.716838134765625,-1.9006097316741943,-6.7350873947143555,-4.779541492462158
1772740697361610500,1.735610595703125,-1.2601369619369507,-6.983734130859375,-4.630874156951904
1772740697380383000,1.754383056640625,-0.7112241983413696,-7.284761905670166,-4.580824375152588
1772740697399155500,1.773155517578125,0.29572057723999023,-7.369091033935547,-4.407993316650391
1772740697417928000,1.791927978515625,2.316563606262207,-7.001727104187012,-4.081056118011475
1772740697436687400,1.810687255859375,4.887279510498047,-5.612021446228027,-3.8851003646850586
1772740697455473000,1.829472900390625,7.3546857833862305,-2.9842934608459473,-4.11386251449585
1772740697474245400,1.848245361328125,9.657793045043945,1.0294570922851562,-5.183727264404297
1772740697493004800,1.8670048828125,13.161272048950195,5.266205787658691,-5.763064384460449
1772740697511790300,1.885790283203125,16.903871536254883,7.903815269470215,-5.339306831359863
1772740697530562800,1.904562744140625,19.147226333618164,7.662860870361328,-4.139156341552734
1772740697549322200,1.923322265625,20.923978805541992,5.379569053649902,-2.9341139793395996
1772740697568107800,1.942107666015625,21.371042251586914,2.115835189819336,-2.397448778152466
1772740697586880300,1.96088037109375,19.11101531982422,-1.2433180809020996,-2.8727784156799316
1772740697605639700,1.9796396484375,14.042688369750977,-4.134861946105957,-3.712360382080078
1772740697624425200,1.99842529296875,8.563459396362305,-6.16393518447876,-3.877636432647705
1772740697643197700,2.01719775390625,5.853133201599121,-6.937127590179443,-2.8682518005371094
1772740697661957000,2.03595703125,6.160347938537598,-6.4205498695373535,-1.3734774589538574
1772740697680742700,2.05474267578125,7.168279647827148,-6.0641937255859375,-0.6698131561279297
1772740697699515100,2.07351513671875,6.291356563568115,-6.99111795425415,-1.0439362525939941
1772740697718274600,2.092274658203125,3.55464768409729,-7.640965461730957,-2.151262044906616
1772740697737060000,2.11106005859375,0.7037627696990967,-8.12511920928955,-3.024996519088745
1772740697755832600,2.12983251953125,-1.5220799446105957,-7.917636394500732,-3.443138599395752
1772740697774592000,2.148592041015625,-2.5152394771575928,-7.150849342346191,-3.4597253799438477
1772740697793377500,2.16737744140625,-2.7372729778289795,-6.389355659484863,-3.212362051010132
1772740697812150000,2.18614990234375,-2.7140774726867676,-5.885987281799316,-3.2212963104248047
1772740697830922500,2.204922607421875,-2.4570350646972656,-5.765254974365234,-3.3250648975372314
1772740697849695000,2.223695068359375,-2.575713634490967,-6.260475158691406,-3.650881767272949
1772740697868467500,2.242467529296875,-2.617579936981201,-6.517861366271973,-3.986537456512451
1772740697887240000,2.261239990234375,-2.065277099609375,-7.023350715637207,-4.070802688598633
1772740697906012400,2.280012451171875,-0.7757166624069214,-7.413815975189209,-4.1143574714660645
1772740697924785000,2.298784912109375,0.2629969120025635,-7.205198287963867,-4.204129695892334
1772740697943544300,2.31754443359375,2.120256185531616,-5.835906028747559,-4.781611442565918
1772740697962329900,2.336329833984375,4.972245216369629,-3.4086790084838867,-5.7426605224609375
1772740697981102300,2.355102294921875,7.747197151184082,0.3184337615966797,-6.962319374084473
1772740697999861800,2.37386181640625,11.844086647033691,3.4578075408935547,-6.320981979370117
1772740698018647300,2.392647216796875,18.826091766357422,6.152501106262207,-4.544094085693359
1772740698037419800,2.411419677734375,24.071577072143555,6.425943374633789,-3.0701820850372314
1772740698056179200,2.43017919921875,25.177734375,4.7543182373046875,-3.5065183639526367
1772740698074964700,2.44896484375,21.365785598754883,1.903921127319336,-5.90856409072876
1772740698093737200,2.4677373046875,15.47455883026123,-0.03147315979003906,-7.930277347564697
1772740698112496600,2.48649658203125,11.306032180786133,-0.9984755516052246,-8.151171684265137
1772740698131282200,2.5052822265625,10.206475257873535,-1.900280475616455,-6.57305908203125
1772740698150054700,2.5240546875,9.361361503601074,-2.9396824836730957,-4.9801025390625
1772740698168814000,2.54281396484375,9.087227821350098,-3.961223602294922,-3.7322678565979004
1772740698187599600,2.561599609375,7.99002742767334,-4.738710880279541,-2.9048609733581543
1772740698206372000,2.5803720703125,5.999948501586914,-5.205229759216309,-2.620518684387207
1772740698225131500,2.599131591796875,4.433521270751953,-5.717002868652344,-2.759052038192749
1772740698243917300,2.617917236328125,3.114307165145874,-6.422313690185547,-3.009791851043701
1772740698262689500,2.636689453125,2.053760290145874,-6.796437740325928,-3.4065418243408203
1772740698281449000,2.655448974609375,0.8482410907745361,-6.989584445953369,-3.6851983070373535
1772740698300234800,2.67423486328125,-0.34273791313171387,-6.907248497009277,-3.871532917022705
1772740698319007200,2.69300732421875,-1.5093210935592651,-6.640621185302734,-4.008510112762451
1772740698337766700,2.7117666015625,-2.035473346710205,-6.415322303771973,-4.154587268829346
1772740698356552200,2.73055224609375,-2.182007312774658,-6.287908554077148,-4.302773475646973
1772740698375324700,2.74932470703125,-2.0112903118133545,-6.528001308441162,-4.381415367126465
1772740698394097200,2.76809716796875,-2.041977882385254,-7.054318428039551,-4.543844223022461
1772740698412869600,2.78686962890625,-1.7610669136047363,-7.301584243774414,-4.610509872436523
1772740698431642000,2.80564208984375,-0.7255635261535645,-6.863847732543945,-4.4990739822387695
1772740698450401500,2.824401611328125,1.3925707340240479,-5.8202900886535645,-4.260467529296875
1772740698469187000,2.84318701171875,3.713792324066162,-3.6280994415283203,-4.317557334899902
1772740698487959600,2.86195947265625,5.625004291534424,-0.17508649826049805,-5.183312892913818
1772740698506719000,2.880718994140625,7.39501953125,3.7684803009033203,-5.055500507354736
1772740698525504500,2.89950439453125,11.66000747680664,7.717425346374512,-3.489969253540039
1772740698544277000,2.918277099609375,18.894174575805664,7.305601596832275,-0.7041478157043457
1772740698563036400,2.937036376953125,26.63776397705078,2.6866512298583984,0.7655954360961914
1772740698581822000,2.955822021484375,27.65685272216797,-3.7680821418762207,-0.26740264892578125
1772740698600594400,2.974594482421875,20.099910736083984,-4.408587455749512,-3.319202423095703
1772740698619353900,2.993353759765625,13.7991361618042,-3.631842613220215,-4.002723217010498
1772740698638139400,3.012139404296875,10.12464427947998,-2.8015050888061523,-3.463575839996338
1772740698656912000,3.030911865234375,6.376551628112793,-2.981682777404785,-3.2439966201782227
1772740698675671300,3.04967138671875,2.4862287044525146,-3.403250217437744,-3.539984703063965
1772740698694456800,3.068456787109375,0.6294205188751221,-3.981153726577759,-3.6190991401672363
1772740698713229300,3.087229248046875,0.15311312675476074,-4.852059364318848,-3.3789381980895996
1772740698731988700,3.10598876953125,-0.1208033561706543,-5.900689125061035,-3.0231356620788574
1772740698750774300,3.124774169921875,-0.49123311042785645,-7.437549591064453,-2.873185634613037
1772740698769547000,3.143547119140625,-1.760967493057251,-8.639150619506836,-3.162559986114502
1772740698788306200,3.16230615234375,-3.4399445056915283,-9.26971435546875,-3.6973984241485596
1772740698807092000,3.181092041015625,-5.051258563995361,-9.347848892211914,-4.470409870147705
1772740698825864400,3.199864501953125,-5.512086868286133,-8.795087814331055,-5.090466022491455
1772740698844637000,3.218636962890625,-4.921516418457031,-8.341166496276855,-5.335014343261719
1772740698863409400,3.237409423828125,-2.959028482437134,-7.919161319732666,-5.184830188751221
1772740698882182000,3.256181884765625,-1.2856619358062744,-7.594621658325195,-4.805102348327637
1772740698900941300,3.27494140625,-0.017894983291625977,-7.0021843910217285,-4.582864284515381
1772740698919726800,3.293726806640625,1.738084077835083,-6.023983955383301,-4.49788236618042
1772740698938499300,3.312499267578125,3.557880401611328,-4.272235870361328,-5.041616916656494
1772740698957258800,3.3312587890625,5.727051258087158,-0.9856748580932617,-6.758726596832275
1772740698976044300,3.350044189453125,8.578660011291504,2.8842601776123047,-8.1746826171875
1772740698994816800,3.368816650390625,13.782773971557617,5.491220474243164,-6.802212238311768
1772740699013576200,3.387576171875,22.30337142944336,5.612760543823242,-4.073985576629639
1772740699032361700,3.40636181640625,28.691673278808594,2.418039321899414,-2.039067506790161
1772740699051134200,3.42513427734375,25.931297302246094,-1.059840202331543,-3.4506514072418213
1772740699069893600,3.4438935546875,17.810588836669922,-2.5667476654052734,-6.55369758605957
1772740699088679200,3.46267919921875,9.733612060546875,-2.9554057121276855,-8.78699779510498
1772740699107451600,3.48145166015625,5.37510347366333,-3.0602192878723145,-9.009350776672363
1772740699126211000,3.500211181640625,4.394572734832764,-3.5588064193725586,-7.408421516418457
1772740699144996900,3.518996826171875,4.000164031982422,-3.987964630126953,-5.515598773956299
1772740699163769000,3.53776904296875,4.238027095794678,-4.45316219329834,-3.8546035289764404
1772740699182528500,3.556528564453125,4.532750606536865,-5.755047798156738,-2.5596556663513184
1772740699201314300,3.575314208984375,2.805802822113037,-6.608017921447754,-2.080954074859619
1772740699220086800,3.594086669921875,0.4035916328430176,-7.432845592498779,-2.1399102210998535
1772740699238859300,3.612859375,0.3711838722229004,-7.902711391448975,-1.912805438041687
1772740699257631700,3.6316318359375,0.986137866973877,-8.496597290039062,-1.5093551874160767
1772740699276404200,3.650404296875,-0.9207425117492676,-8.666654586791992,-1.5701476335525513
1772740699295163600,3.66916357421875,-3.3985090255737305,-8.555562973022461,-1.7723088264465332
1772740699313949200,3.68794921875,-5.0295867919921875,-8.23784065246582,-1.7009512186050415
1772740699332721700,3.7067216796875,-5.597423076629639,-7.973687648773193,-1.5339492559432983
1772740699351494100,3.725494140625,-5.4211931228637695,-8.10972785949707,-1.5202428102493286
1772740699370266600,3.7442666015625,-5.075028419494629,-8.65986442565918,-1.852278470993042
1772740699389039000,3.7630390625,-4.735975742340088,-8.007190704345703,-2.2172129154205322
1772740699407798500,3.781798583984375,-3.5122690200805664,-6.883370399475098,-2.582879066467285
1772740699426584000,3.800583984375,-0.5634684562683105,-4.604677200317383,-3.286397933959961
1772740699445356500,3.8193564453125,4.531686782836914,-2.295917510986328,-3.877302646636963
1772740699464116000,3.838115966796875,9.770620346069336,-1.640359878540039,-4.436264991760254
1772740699482901800,3.85690185546875,12.279284477233887,-2.7766714096069336,-5.57982063293457
1772740699501674200,3.87567431640625,13.512269973754883,-3.758780002593994,-6.4474077224731445
1772740699520433700,3.89443359375,16.36470603942871,-5.246670722961426,-5.710758209228516
1772740699539219200,3.91321923828125,18.26685905456543,-6.513273239135742,-5.142552375793457
1772740699557991700,3.93199169921875,17.314373016357422,-7.523174285888672,-5.179394721984863
1772740699576751000,3.950751220703125,14.305709838867188,-7.602911472320557,-5.067046642303467
1772740699595536600,3.96953662109375,11.660795211791992,-6.73681640625,-3.990931510925293
1772740699614309000,3.98830908203125,9.17689323425293,-5.211661338806152,-2.8491640090942383
1772740699633068500,4.007068603515625,6.107769012451172,-4.866241455078125,-2.416762590408325
1772740699651854000,4.02585400390625,3.2011451721191406,-5.291097640991211,-2.585996627807617
1772740699670626600,4.04462646484375,0.945620059967041,-5.7685065269470215,-2.5715878009796143
1772740699689386000,4.063385986328125,-0.3158149719238281,-5.899696350097656,-2.307166337966919
1772740699708171500,4.082171630859375,-1.4460220336914062,-6.264923095703125,-2.024600028991699
1772740699726944000,4.100944091796875,-2.95922589302063,-7.108259677886963,-2.063255548477173
1772740699745703400,4.119703369140625,-4.096840858459473,-7.547967910766602,-2.3487353324890137
1772740699764489000,4.138489013671875,-4.408266067504883,-7.446974754333496,-2.3642635345458984
1772740699783261700,4.15726171875,-4.3853607177734375,-7.058573246002197,-2.1703014373779297
1772740699802034200,4.1760341796875,-4.814817428588867,-6.79384183883667,-2.0850918292999268
1772740699820806700,4.194806640625,-5.128763675689697,-6.6959357261657715,-2.0750298500061035
1772740699839579100,4.2135791015625,-5.101625919342041,-6.336644172668457,-2.1464548110961914
1772740699858351600,4.2323515625,-4.47552490234375,-6.379368782043457,-2.2038791179656982
1772740699877124000,4.2511240234375,-3.489718437194824,-6.855268478393555,-2.605264902114868
1772740699895896600,4.269896484375,-1.3135151863098145,-6.770749568939209,-3.199660062789917
1772740699914656000,4.288656005859375,2.9835805892944336,-5.612278938293457,-4.141889572143555
1772740699933441500,4.307441650390625,8.726343154907227,-3.1703686714172363,-6.749511241912842
1772740699952214000,4.326214111328125,16.301151275634766,-4.571279525756836,-8.107156753540039
1772740699970973400,4.344973388671875,22.05783462524414,-7.005751132965088,-8.017447471618652
1772740699989759000,4.363759033203125,22.4800968170166,-6.517725944519043,-7.649999141693115
1772740700008531700,4.38253173828125,21.042999267578125,-6.026186943054199,-7.069268703460693
1772740700027291100,4.401291015625,17.527915954589844,-5.625152587890625,-6.968992233276367
1772740700046076700,4.42007666015625,12.128429412841797,-5.324030876159668,-7.4076433181762695
1772740700064849200,4.43884912109375,6.9344482421875,-4.646989345550537,-7.590112686157227
1772740700083608600,4.457608642578125,4.9030961990356445,-4.038738250732422,-6.6872968673706055
1772740700102394000,4.47639404296875,3.0122132301330566,-3.232606887817383,-5.3425703048706055
1772740700121166600,4.49516650390625,0.9654707908630371,-3.1594767570495605,-4.236185073852539
1772740700139926000,4.513926025390625,-0.3078756332397461,-4.103116989135742,-3.271272659301758
1772740700158711600,4.532711669921875,-0.946098804473877,-4.90441370010376,-2.3381922245025635
1772740700177484000,4.551484130859375,-1.3966255187988281,-5.389568328857422,-1.7885158061981201
1772740700196243500,4.570243408203125,-1.1100454330444336,-5.83100700378418,-1.318771243095398
1772740700215029000,4.589029052734375,-1.3992791175842285,-6.352250576019287,-1.1654713153839111
1772740700233801500,4.607801513671875,-1.9907360076904297,-6.890993595123291,-1.2773354053497314
1772740700252574200,4.62657421875,-2.3800015449523926,-7.656388282775879,-1.4817432165145874
1772740700271346700,4.6453466796875,-2.9938018321990967,-8.061370849609375,-1.7045857906341553
1772740700290119200,4.664119140625,-4.642473220825195,-8.000574111938477,-1.8201391696929932
1772740700308878600,4.682878662109375,-5.48819637298584,-7.592565536499023,-1.7077215909957886
1772740700327664000,4.7016640625,-5.8030524253845215,-7.012118339538574,-1.5959274768829346
1772740700346436600,4.7204365234375,-5.583057403564453,-6.642304420471191,-1.5197012424468994
1772740700365209000,4.739208984375,-4.964181423187256,-6.265974044799805,-1.63789963722229
1772740700383981600,4.757981689453125,-3.387643814086914,-5.412242889404297,-2.2932872772216797
1772740700402754000,4.776754150390625,-0.7197079658508301,-3.7682862281799316,-3.2123146057128906
1772740700421513500,4.795513427734375,3.273552417755127,-2.6005196571350098,-4.007750511169434
1772740700440299300,4.81429931640625,8.317880630493164,-2.1355690956115723,-4.475658416748047
1772740700459071700,4.83307177734375,13.204078674316406,-3.0054850578308105,-4.807639122009277
1772740700477831200,4.8518310546875,16.466541290283203,-5.1977434158325195,-5.322528839111328
1772740700496616700,4.87061669921875,18.017839431762695,-7.213246822357178,-6.245338439941406
1772740700515389200,4.88938916015625,18.515987396240234,-7.739748954772949,-6.499295234680176
1772740700534161700,4.90816162109375,17.038612365722656,-6.871645450592041,-5.77982234954834
1772740700552934100,4.92693408203125,14.147101402282715,-5.302766799926758,-4.545393943786621
1772740700571706600,4.94570654296875,10.645151138305664,-3.814948320388794,-3.2563724517822266
1772740700590466000,4.964466064453125,6.882381916046143,-3.241220712661743,-2.5050714015960693
1772740700609251600,4.98325146484375,3.4187560081481934,-3.60614275932312,-2.3271877765655518
1772740700628024000,5.002024169921875,0.9293570518493652,-4.362755298614502,-2.2502341270446777
1772740700646783700,5.02078369140625,-0.33037376403808594,-5.062281608581543,-2.132343053817749
1772740700665569300,5.0395693359375,-1.4345321655273438,-5.431119918823242,-2.101902484893799
1772740700684341800,5.058341796875,-2.6149792671203613,-5.923151969909668,-2.1060736179351807
1772740700703101200,5.07710107421875,-3.4783003330230713,-6.215076446533203,-2.246960163116455
1772740700729098200,5.10309814453125,-4.457981586456299,-6.609402656555176,-2.4696156978607178
1772740700743177700,5.117177734375,-4.932342529296875,-6.595695495605469,-2.5415847301483154
1772740700757257000,5.131257080078125,-5.078131198883057,-6.346121311187744,-2.432466506958008
1772740700771336400,5.14533642578125,-5.619319915771484,-6.234969139099121,-2.37227463722229
1772740700785415700,5.159415771484375,-5.974454402923584,-5.924314498901367,-2.4292805194854736
1772740700799495200,5.1734951171875,-5.822525978088379,-6.015464782714844,-2.3079659938812256
1772740700815749000,5.1897490234375,-5.652816295623779,-6.0227437019348145,-2.3151333332061768
1772740700834521900,5.20852197265625,-5.3888139724731445,-6.267846584320068,-2.268805980682373
1772740700853294300,5.22729443359375,-3.115325450897217,-6.756332874298096,-2.388943672180176
1772740700872053800,5.2460537109375,-0.4486560821533203,-7.579293727874756,-2.8076136112213135
1772740700890839300,5.26483935546875,2.320512294769287,-7.663529396057129,-3.762084484100342
1772740700909611800,5.28361181640625,4.9263458251953125,-5.798334121704102,-5.088472366333008
1772740700928371200,5.30237109375,9.831887245178223,-4.186269760131836,-5.195487022399902
1772740700947156700,5.32115673828125,16.34969139099121,-4.401976585388184,-4.172077178955078
1772740700965929500,5.339929443359375,19.168315887451172,-6.556516647338867,-3.6495344638824463
1772740700984689000,5.35868896484375,18.23807716369629,-8.1818265914917,-4.198431491851807
1772740701003474400,5.377474365234375,16.7164363861084,-8.320392608642578,-5.084561347961426
1772740701022247000,5.396246826171875,13.503137588500977,-7.389838218688965,-6.061676025390625
1772740701041006300,5.41500634765625,11.377832412719727,-5.792851448059082,-6.192873001098633
1772740701059792000,5.4337919921875,10.523455619812012,-4.861551284790039,-5.368213653564453
1772740701078564400,5.452564453125,9.119979858398438,-4.4653167724609375,-4.24562931060791
1772740701097323800,5.47132373046875,7.6727094650268555,-4.917472839355469,-3.5665154457092285
1772740701116109300,5.490109375,5.819448471069336,-5.356637477874756,-3.0708775520324707
1772740701134882000,5.508882080078125,3.003694534301758,-5.687739372253418,-2.4684383869171143
1772740701153641500,5.527641357421875,0.24763107299804688,-5.887824535369873,-1.8822433948516846
1772740701172427000,5.546427001953125,-2.006009101867676,-6.212796688079834,-1.5062400102615356
1772740701191199500,5.565199462890625,-2.9709787368774414,-6.502030372619629,-1.6886440515518188
1772740701209959000,5.583958984375,-3.745818614959717,-6.629898548126221,-1.8221182823181152
1772740701228744400,5.602744384765625,-5.305965900421143,-6.293391227722168,-1.7083944082260132
1772740701247517000,5.621516845703125,-7.369253158569336,-5.825742244720459,-1.5109992027282715
1772740701266276400,5.6402763671875,-8.469803810119629,-5.338050842285156,-1.3811155557632446
1772740701285062100,5.659062255859375,-8.021623611450195,-5.027755260467529,-1.4094691276550293
1772740701303834600,5.677834716796875,-8.240501403808594,-4.732687473297119,-1.5315217971801758
1772740701322607000,5.696607177734375,-8.050708770751953,-4.829912185668945,-1.844385027885437
1772740701341379600,5.715379638671875,-7.311885356903076,-4.948197841644287,-2.231046438217163
1772740701360152000,5.734152099609375,-5.284456729888916,-4.922019004821777,-2.6099836826324463
1772740701378911500,5.752911376953125,-2.7803001403808594,-4.817500114440918,-3.53118634223938
1772740701397697300,5.771697265625,0.5353221893310547,-4.248133182525635,-4.549571514129639
1772740701416469800,5.7904697265625,3.794670581817627,-3.0057785511016846,-5.236410140991211
1772740701435229200,5.809229248046875,7.241294860839844,-1.8204021453857422,-5.053999900817871
1772740701454014700,5.8280146484375,12.636474609375,-3.2523276805877686,-4.247276306152344
1772740701472787200,5.846787109375,18.776891708374023,-7.4007487297058105,-3.9150261878967285
1772740701491546600,5.865546630859375,22.925582885742188,-11.41611099243164,-3.9402379989624023
1772740701510332200,5.884332275390625,21.390270233154297,-12.5650053024292,-4.690268516540527
1772740701529104600,5.903104736328125,17.54581642150879,-11.487069129943848,-4.589672088623047
1772740701547864000,5.921864013671875,13.841102600097656,-8.165956497192383,-3.3068840503692627
1772740701566649900,5.94064990234375,10.644076347351074,-4.842784881591797,-1.9455503225326538
1772740701585422300,5.95942236328125,7.279755592346191,-3.2644898891448975,-1.6496436595916748
1772740701604181800,5.978181640625,3.5661888122558594,-3.242321729660034,-2.0295872688293457
1772740701622967300,5.99696728515625,0.24706411361694336,-3.9620718955993652,-2.4893972873687744
1772740701641739800,6.01573974609375,-2.514860153198242,-4.27597713470459,-2.815885066986084
1772740701660499200,6.034499267578125,-4.273232460021973,-4.341667175292969,-3.0017240047454834
1772740701679285000,6.053284912109375,-5.419966697692871,-4.570523262023926,-3.109426975250244
1772740701698057500,6.072057373046875,-6.11605167388916,-4.7575483322143555,-3.2048230171203613
1772740701716817000,6.09081689453125,-7.125687599182129,-4.378836631774902,-3.414771556854248
1772740701735602400,6.1096025390625,-8.065634727478027,-3.891021490097046,-3.4043359756469727
1772740701754375000,6.128375,-8.404123306274414,-3.5147078037261963,-3.266390800476074
1772740701773147600,6.147147705078125,-8.059743881225586,-3.545245885848999,-3.1380739212036133
1772740701791920000,6.165920166015625,-7.219619274139404,-3.8349077701568604,-3.154726028442383
1772740701810692600,6.184692626953125,-6.348068714141846,-4.473367691040039,-3.307502269744873
1772740701829452000,6.2034521484375,-5.228211402893066,-5.176677227020264,-3.680349111557007
1772740701848237600,6.222237548828125,-3.34916615486145,-6.0144734382629395,-3.945263624191284
1772740701867010000,6.241010009765625,-0.7791876792907715,-5.850558280944824,-4.563210487365723
1772740701885769500,6.25976953125,1.972372055053711,-4.64530086517334,-5.758401393890381
1772740701904555300,6.27855517578125,5.907326698303223,-3.7209458351135254,-6.805583477020264
1772740701923327700,6.29732763671875,12.171045303344727,-4.504997253417969,-6.3405890464782715
1772740701942087200,6.316087158203125,19.594837188720703,-6.30514669418335,-4.586526393890381
1772740701960872700,6.334872802734375,23.53203582763672,-8.398981094360352,-2.9782962799072266
1772740701979645200,6.353645263671875,22.507844924926758,-9.594053268432617,-2.7291669845581055
1772740701998404600,6.372404541015625,18.512874603271484,-9.280136108398438,-3.7697927951812744
1772740702017190400,6.3911904296875,14.172280311584473,-7.774205207824707,-4.7083353996276855
1772740702035963000,6.409962890625,10.674057960510254,-5.965242862701416,-5.005451202392578
1772740702054722300,6.428722412109375,8.114435195922852,-4.804134368896484,-4.751049041748047
1772740702073507800,6.4475078125,6.961108684539795,-4.700161933898926,-4.357298851013184
1772740702092280300,6.4662802734375,5.907413959503174,-5.098748207092285,-4.048489093780518
1772740702111039700,6.485039794921875,4.075911998748779,-4.990783214569092,-3.7119803428649902
1772740702129825500,6.503825439453125,2.200345993041992,-4.69242000579834,-3.280510187149048
1772740702148598000,6.522597900390625,-0.23423433303833008,-4.5378546714782715,-3.1850807666778564
1772740702167357400,6.541357421875,-2.755432605743408,-4.435894966125488,-3.3609511852264404
1772740702186143000,6.56014306640625,-4.833449363708496,-4.204852104187012,-3.3704657554626465
1772740702204915700,6.578915771484375,-6.188673973083496,-3.9784817695617676,-3.154404401779175
1772740702223675100,6.597675048828125,-6.415964603424072,-4.032520294189453,-2.842538595199585
1772740702242460700,6.616460693359375,-6.605187892913818,-4.540812015533447,-2.8364155292510986
1772740702261233200,6.635233154296875,-7.062856674194336,-5.311565399169922,-3.1163744926452637
1772740702280005600,6.654005615234375,-7.261263847351074,-5.797422409057617,-3.2912240028381348
1772740702298778400,6.6727783203125,-7.098657608032227,-6.15808629989624,-3.0980334281921387
1772740702317550800,6.69155078125,-6.488367080688477,-6.5261030197143555,-3.0505940914154053
1772740702336323300,6.7103232421875,-5.646182537078857,-6.373504161834717,-3.192396640777588
1772740702355095800,6.729095703125,-4.725414752960205,-5.790304660797119,-3.453751802444458
1772740702373868300,6.747868408203125,-1.939685344696045,-4.508670806884766,-3.8389174938201904
1772740702392627700,6.766627685546875,2.050992488861084,-2.8648290634155273,-4.27931547164917
1772740702411413500,6.78541357421875,5.777383327484131,-1.7773022651672363,-4.060626029968262
1772740702430186000,6.80418603515625,10.965606689453125,-3.181337356567383,-2.6445751190185547
1772740702448945400,6.8229453125,17.305904388427734,-6.6904988288879395,-1.8643803596496582
1772740702467731000,6.84173095703125,19.960826873779297,-9.46375846862793,-2.320809841156006
1772740702486503700,6.860503662109375,17.33884048461914,-9.441247940063477,-2.9250411987304688
1772740702505276200,6.879276123046875,15.843610763549805,-7.231812477111816,-2.4444496631622314
1772740702524048600,6.898048583984375,14.085079193115234,-4.958394527435303,-1.9839226007461548
1772740702542821000,6.916821044921875,11.909568786621094,-3.983865976333618,-1.6319572925567627
1772740702561580500,6.93558056640625,8.88955307006836,-3.054107666015625,-1.4654252529144287
1772740702580366000,6.954365966796875,6.318819046020508,-2.7263400554656982,-1.4139583110809326
1772740702599138800,6.973138916015625,4.3138813972473145,-3.3042306900024414,-1.780879020690918
1772740702617898200,6.991898193359375,1.4036455154418945,-3.6192684173583984,-2.09266996383667
1772740702636683800,7.010683837890625,-1.295180320739746,-3.6535441875457764,-2.246212959289551
1772740702655456300,7.029456298828125,-4.588320255279541,-4.0953216552734375,-2.7237231731414795
1772740702674215700,7.048215576171875,-6.373898506164551,-4.35880184173584,-3.083885908126831
1772740702693001500,7.06700146484375,-6.969306468963623,-4.805880069732666,-3.4474937915802
1772740702711774000,7.08577392578125,-7.655189514160156,-5.276799201965332,-4.036108016967773
1772740702730533400,7.104533447265625,-8.028526306152344,-5.4034857749938965,-4.323833465576172
1772740702749319000,7.12331884765625,-7.633174896240234,-5.3482208251953125,-4.1465535163879395
1772740702768091600,7.142091552734375,-7.323184967041016,-5.294845104217529,-3.82011342048645
1772740702786864000,7.160864013671875,-6.3575215339660645,-5.4267425537109375,-3.5105879306793213
1772740702805636600,7.17963671875,-5.191272735595703,-5.845606803894043,-3.3966641426086426
1772740702824409000,7.1984091796875,-4.130918502807617,-6.1045966148376465,-3.4704861640930176
1772740702843168500,7.21716845703125,-2.5518298149108887,-5.885032653808594,-3.681692361831665
1772740702861954300,7.235954345703125,-0.8855867385864258,-4.899426460266113,-4.624148368835449
1772740702880726800,7.254726806640625,2.0570569038391113,-3.374751329421997,-5.61391544342041
1772740702899486200,7.273486328125,7.546624660491943,-3.481095790863037,-4.8748674392700195
1772740702918271700,7.292271728515625,15.888276100158691,-5.817447662353516,-3.2707552909851074
1772740702937044200,7.311044189453125,20.914318084716797,-8.533586502075195,-2.7814671993255615
1772740702955803600,7.3298037109375,19.92435073852539,-9.689254760742188,-3.2373886108398438
1772740702974589400,7.34858935546875,18.088111877441406,-8.621505737304688,-3.6486575603485107
1772740702993362000,7.36736181640625,16.45223617553711,-6.0885748863220215,-3.761035442352295
1772740703012121300,7.386121337890625,12.695740699768066,-4.50253438949585,-4.053646564483643
1772740703030907000,7.404906982421875,9.667413711547852,-3.9817419052124023,-4.273016452789307
1772740703049679600,7.4236796875,8.5859375,-4.015027046203613,-3.8256232738494873
1772740703068439000,7.44243896484375,7.609685897827148,-4.15651273727417,-3.2375662326812744
1772740703087224600,7.461224609375,5.165136814117432,-4.770833969116211,-2.994610548019409
1772740703105997000,7.4799970703125,3.324329376220703,-5.21282434463501,-2.66447377204895
1772740703124756500,7.498756591796875,1.2129368782043457,-5.21245002746582,-2.6143219470977783
1772740703143542300,7.517542236328125,-1.1890068054199219,-5.479736328125,-2.621375560760498
1772740703162314800,7.536314697265625,-2.9971089363098145,-5.434476852416992,-2.6867012977600098
1772740703181074200,7.55507421875,-4.677859783172607,-5.450084209442139,-2.7084803581237793
1772740703199859700,7.573859619140625,-6.031305313110352,-5.486388206481934,-2.7044661045074463
1772740703218632400,7.592632568359375,-7.331556797027588,-5.575300216674805,-2.7323548793792725
1772740703237392000,7.611391845703125,-8.218050003051758,-5.710893630981445,-2.835587978363037
1772740703256177400,7.630177490234375,-8.603299140930176,-5.858063697814941,-2.803560972213745
1772740703274950000,7.648949951171875,-8.584927558898926,-5.921679496765137,-2.607477903366089
1772740703293722400,7.667722412109375,-8.094242095947266,-5.7049970626831055,-2.1767477989196777
1772740703312495000,7.6864951171875,-7.42127799987793,-5.561249256134033,-1.8311649560928345
1772740703331267600,7.705267578125,-5.807233810424805,-5.343504905700684,-1.7344567775726318
1772740703350027000,7.724027099609375,-3.8604736328125,-4.423144340515137,-1.8912996053695679
1772740703368812500,7.7428125,-1.004045009613037,-3.2548086643218994,-1.8834717273712158
1772740703387585300,7.761585205078125,2.901444435119629,-2.246140480041504,-2.078751802444458
1772740703406344700,7.7803447265625,7.309141635894775,-2.618567705154419,-2.526615619659424
1772740703425130200,7.799130126953125,12.550859451293945,-5.367983341217041,-2.972736358642578
1772740703443902700,7.81790283203125,16.556264877319336,-8.53756332397461,-3.9211959838867188
1772740703462662100,7.836662109375,19.43712615966797,-10.53222942352295,-4.227680206298828
1772740703481448000,7.855447998046875,20.283309936523438,-10.798696517944336,-4.206856727600098
1772740703500220400,7.874220458984375,16.999876022338867,-9.058921813964844,-4.102104187011719
1772740703518979800,7.892979736328125,13.983938217163086,-5.856950283050537,-3.1208932399749756
1772740703537765400,7.911765380859375,10.604209899902344,-3.3170719146728516,-2.697920799255371
1772740703556538000,7.9305380859375,7.372547149658203,-2.636580228805542,-2.9609034061431885
1772740703575297500,7.949297607421875,4.832260608673096,-3.196873903274536,-3.3533737659454346
1772740703594083000,7.9680830078125,2.6472644805908203,-3.8155384063720703,-3.466184139251709
1772740703612855600,7.98685546875,0.9235405921936035,-3.970919132232666,-3.1107254028320312
1772740703631615200,8.005615234375,-1.2620782852172852,-3.805433511734009,-2.7627158164978027
1772740703650400800,8.02440087890625,-3.8015356063842773,-3.870936870574951,-2.5307178497314453
1772740703669173200,8.04317333984375,-5.578023910522461,-4.425818920135498,-2.381131649017334
1772740703687932700,8.0619326171875,-6.526173114776611,-5.169337749481201,-2.312922954559326
1772740703706718500,8.080718505859375,-7.659823894500732,-5.35468864440918,-2.4847075939178467
1772740703725491000,8.099490966796875,-8.767891883850098,-4.849402904510498,-2.41837739944458
1772740703744250400,8.11825048828125,-9.208303451538086,-4.236929893493652,-2.1357333660125732
1772740703763036000,8.137035888671875,-8.760180473327637,-4.067967414855957,-1.9164994955062866
1772740703781808600,8.15580859375,-7.896575450897217,-4.70639705657959,-1.9683806896209717
1772740703800581000,8.1745810546875,-7.108489036560059,-5.266427040100098,-2.0395898818969727
1772740703819353600,8.193353515625,-6.00860595703125,-5.673253536224365,-1.9588544368743896
1772740703838126000,8.2121259765625,-4.080066680908203,-5.827718734741211,-2.0804619789123535
1772740703856885500,8.230885498046876,-2.4809560775756836,-4.922426700592041,-3.2007455825805664
1772740703875671300,8.24967138671875,-0.4212007522583008,-2.5859856605529785,-4.953230857849121
1772740703894443800,8.26844384765625,4.250045299530029,-1.5801639556884766,-5.86683464050293
1772740703913203200,8.287203125,12.519449234008789,-3.278059482574463,-5.466363430023193
1772740703931988700,8.30598876953125,19.688486099243164,-5.662869453430176,-5.020198345184326
1772740703950761500,8.324761474609375,20.80644416809082,-7.885313510894775,-5.186084270477295
1772740703969521000,8.34352099609375,20.506893157958984,-8.735359191894531,-5.070551872253418
1772740703988306400,8.362306396484374,17.307361602783203,-7.878936767578125,-5.607751369476318
1772740704007079000,8.381078857421874,11.792154312133789,-5.218469619750977,-6.025864601135254
1772740704025838300,8.39983837890625,7.820856094360352,-2.803499460220337,-5.763698577880859
1772740704044624100,8.4186240234375,6.4525556564331055,-2.8604719638824463,-5.364777565002441
1772740704063396600,8.437396728515624,5.987001419067383,-3.9862260818481445,-4.85885763168335
1772740704082156000,8.456156005859375,4.908875465393066,-4.508788108825684,-4.122500896453857
1772740704100941800,8.47494189453125,2.799712657928467,-4.530911445617676,-3.615840435028076
1772740704119714300,8.49371435546875,0.6981477737426758,-4.776174068450928,-3.234779119491577
1772740704138473700,8.5124736328125,-0.5571432113647461,-5.279564380645752,-2.9653897285461426
1772740704157259300,8.53125927734375,-1.7244386672973633,-5.891656398773193,-2.814349412918091
1772740704176032000,8.550031982421874,-2.829955577850342,-6.114738941192627,-2.6882574558258057
1772740704194791400,8.56879150390625,-3.824838161468506,-5.965568542480469,-2.5061779022216797
1772740704213577000,8.587576904296874,-4.504182815551758,-6.003179550170898,-2.3487162590026855
1772740704232349400,8.606349365234376,-5.448337554931641,-5.908827781677246,-2.427875518798828
1772740704251108900,8.62510888671875,-6.620563983917236,-5.668290615081787,-2.4970040321350098
1772740704269894700,8.643894775390624,-7.495672702789307,-5.1563520431518555,-2.374190330505371
1772740704288667100,8.662667236328126,-7.596374988555908,-4.877627849578857,-2.1064062118530273
1772740704307439600,8.681439697265626,-6.616296768188477,-4.822739601135254,-1.7576583623886108
1772740704326212400,8.70021240234375,-4.581327438354492,-4.495148658752441,-1.4552549123764038
1772740704344984800,8.71898486328125,-2.7573957443237305,-4.293939113616943,-1.3187233209609985
1772740704363744300,8.737744140625,-1.1073589324951172,-3.351269483566284,-1.7453341484069824
1772740704382529800,8.75652978515625,1.3200716972351074,-1.8115873336791992,-2.6164724826812744
1772740704401302500,8.775302490234376,3.697007179260254,-1.0053787231445312,-3.4830498695373535
1772740704420062000,8.79406201171875,6.712099075317383,-1.727334976196289,-3.4970154762268066
1772740704438847500,8.812847412109376,10.410630226135254,-3.539294481277466,-2.9472315311431885
1772740704457620000,8.831619873046876,13.508827209472656,-6.425333499908447,-2.764232635498047
1772740704476379400,8.85037939453125,15.808938980102539,-8.609235763549805,-3.205106735229492
1772740704495165200,8.869165283203126,15.90181827545166,-8.754331588745117,-3.4327924251556396
1772740704513937700,8.887937744140626,14.75847053527832,-7.347949981689453,-2.927537679672241
1772740704532697000,8.906697021484375,13.742721557617188,-5.605980396270752,-2.0746285915374756
1772740704551483000,8.92548291015625,11.61680793762207,-3.9281482696533203,-1.983549952507019
1772740704570255400,8.94425537109375,9.104738235473633,-3.457212448120117,-2.495244264602661
1772740704589014800,8.963014892578125,6.744205951690674,-3.369931936264038,-3.0963666439056396
1772740704607800300,8.98180029296875,4.610016345977783,-3.241894245147705,-3.311845541000366
1772740704626573000,9.000572998046875,2.204493999481201,-3.4064393043518066,-3.2486572265625
1772740704645332500,9.01933251953125,-0.7133293151855469,-4.0685014724731445,-3.165783405303955
1772740704664118000,9.038117919921875,-3.2804455757141113,-4.4731245040893555,-2.9986021518707275
1772740704682890500,9.056890380859375,-5.160264492034912,-5.030123233795166,-2.6968579292297363
1772740704701650200,9.075650146484374,-6.976454257965088,-5.587006092071533,-2.624746799468994
1772740704720435700,9.094435791015625,-8.119544982910156,-5.6579670906066895,-2.6160733699798584
1772740704739208200,9.113208251953125,-9.085715293884277,-5.208522319793701,-2.678023099899292
1772740704757981000,9.13198095703125,-8.826733589172363,-4.434962272644043,-2.532762050628662
1772740704776753400,9.15075341796875,-8.521197319030762,-4.321582317352295,-2.366868495941162
1772740704795526000,9.16952587890625,-7.696561336517334,-4.689798355102539,-2.3048782348632812
1772740704814298400,9.18829833984375,-6.781769752502441,-5.342945575714111,-2.4176692962646484
1772740704833071000,9.207071044921875,-6.314151287078857,-5.545923709869385,-2.8200063705444336
1772740704851843600,9.225843505859375,-5.673103332519531,-4.539547443389893,-3.6048808097839355
1772740704870603000,9.24460302734375,-4.893100738525391,-2.1979188919067383,-4.653543472290039
1772740704889388500,9.263388427734375,-2.778378963470459,0.12862730026245117,-6.370534896850586
1772740704908161300,9.282161376953125,5.392275810241699,0.6586675643920898,-5.623486042022705
1772740704926920700,9.300920654296876,14.495872497558594,-1.6522011756896973,-4.053044319152832
1772740704945706200,9.319706298828125,19.523046493530273,-6.801422595977783,-3.7879953384399414
