time,seconds_elapsed,z,y,x
1772740695779024600,0.153024658203125,0.09651386737823486,1.185807228088379,0.8822161555290222
1772740695807183400,0.181183349609375,0.06368082761764526,0.9623898267745972,0.8800781965255737
1772740695825955800,0.199955810546875,-0.007635590620338917,0.7211052179336548,0.8200624585151672
1772740695844728300,0.218728271484375,-0.0784938707947731,0.7218687534332275,0.7550072073936462
1772740695863500800,0.237500732421875,-0.027182703837752342,0.7447755336761475,0.7038487792015076
1772740695882273300,0.256273193359375,0.0850604772567749,0.6172611713409424,0.5731274485588074
1772740695901045800,0.275045654296875,0.23884128034114838,0.2515163719654083,0.10873081535100937
1772740695919818200,0.293818359375,0.4225535988807678,-0.03497100621461868,-0.26816195249557495
1772740695938590700,0.3125908203125,0.2748812735080719,-0.4074351191520691,0.7591304183006287
1772740695957363200,0.33136328125,-0.27595025300979614,-0.4818057715892792,2.615495204925537
1772740695976135400,0.350135498046875,-0.7055285573005676,-0.16217994689941406,3.311861038208008
1772740695994908000,0.368907958984375,-0.7931851744651794,-0.0781884491443634,2.5090551376342773
1772740696013680400,0.387680419921875,-0.6759024858474731,-0.05131116881966591,1.0621106624603271
1772740696032439800,0.406439697265625,-0.4734066128730774,0.45447036623954773,0.11651911586523056
1772740696051225300,0.425225341796875,-0.0594048947095871,0.5751127004623413,-0.3593308925628662
1772740696069997800,0.443997802734375,0.4888305068016052,0.10292776674032211,-0.5047125220298767
1772740696088757200,0.46275732421875,0.7875348329544067,-0.41079479455947876,-0.3558185398578644
1772740696107542800,0.481542724609375,0.8170081973075867,-0.4647020399570465,-0.11712995916604996
1772740696126315300,0.500315185546875,0.7206470370292664,-0.2713688910007477,0.10720369219779968
1772740696145074700,0.51907470703125,0.624896764755249,-0.3115321099758148,0.17913095653057098
1772740696163860200,0.537860107421875,0.5486935377120972,-0.5082249045372009,0.3208475112915039
1772740696182632400,0.556632568359375,0.45111069083213806,-0.652384877204895,0.43049460649490356
1772740696201392000,0.57539208984375,0.2654131352901459,-0.4106420576572418,0.25258535146713257
1772740696220177400,0.594177490234375,0.1498102843761444,0.12079504877328873,-0.0029015245381742716
1772740696238950000,0.612949951171875,0.15988926589488983,0.6070294380187988,-0.10598199814558029
1772740696257722400,0.631722412109375,0.2579302489757538,0.9145910739898682,-0.05100574716925621
1772740696276494800,0.650494873046875,0.3086305856704712,0.9866710305213928,0.04871506989002228
1772740696295267300,0.669267333984375,0.3118375241756439,0.7597413063049316,0.23685602843761444
1772740696314026800,0.68802685546875,0.29320669174194336,0.3533751368522644,0.39476004242897034
1772740696332812300,0.706812255859375,0.17485502362251282,0.09987352788448334,0.3689517378807068
1772740696351584800,0.725584716796875,0.08582404255867004,0.05635065957903862,0.23364907503128052
1772740696370357200,0.744357177734375,0.08811471611261368,0.07742489129304886,0.03008422814309597
1772740696389129700,0.763129638671875,0.10460758954286575,0.10644013434648514,-0.1766875684261322
1772740696407902200,0.781902099609375,0.20509196817874908,0.09116895496845245,-0.40606072545051575
1772740696426661600,0.80066162109375,0.4230117201805115,-0.12843063473701477,-0.7456917762756348
1772740696445447200,0.819447265625,0.5071559548377991,-0.4366030693054199,-1.1827529668807983
1772740696464219600,0.8382197265625,0.10201149433851242,-0.4500417113304138,-1.1925265789031982
1772740696482979000,0.85697900390625,-0.4549284875392914,-0.16523417830467224,-0.16248537600040436
1772740696501764600,0.8757646484375,-0.5160132050514221,-0.6145123243331909,0.5473191738128662
1772740696520536800,0.894536865234375,-0.4718795120716095,-1.4750434160232544,-0.1892099380493164
1772740696539296300,0.913296142578125,-0.6128324866294861,-1.4587032794952393,-1.6886872053146362
1772740696558081800,0.932081787109375,-0.7815790772438049,-0.5992411375045776,-2.815242290496826
1772740696576854300,0.950854248046875,-0.6844543814659119,0.4088095426559448,-2.823336124420166
1772740696595613700,0.96961376953125,-0.2548760175704956,0.675597071647644,-2.386580228805542
1772740696614399200,0.988399169921875,0.14583978056907654,0.3226800560951233,-1.799250602722168
1772740696633171700,1.007171630859375,0.4265241026878357,-0.05115845799446106,-0.9749122262001038
1772740696651931100,1.02593115234375,0.6552863717079163,-0.29717719554901123,-0.0984991192817688
1772740696670716700,1.044716552734375,0.7441646456718445,-0.5286883115768433,0.6375718116760254
1772740696689489200,1.0634892578125,0.7924215793609619,-0.6656708121299744,0.9045121073722839
1772740696708248600,1.08224853515625,0.9229902029037476,-0.4162923991680145,0.8206732869148254
1772740696727034000,1.1010341796875,1.3003411293029785,0.20509196817874908,0.9889616966247559
1772740696745806600,1.119806640625,1.5976710319519043,0.3558185398578644,1.6425682306289673
1772740696764566000,1.13856591796875,1.5822471380233765,-0.02504473738372326,2.1741580963134766
1772740696783351600,1.1573515625,1.2945380210876465,-0.3020639717578888,2.3871910572052
1772740696802124000,1.1761240234375,0.9782719016075134,-0.15500248968601227,2.2208878993988037
1772740696820896500,1.194896484375,0.7655443549156189,0.27686652541160583,1.744274377822876
1772740696839669000,1.2136689453125,0.5697677731513977,0.6858287453651428,1.1019684076309204
1772740696858441500,1.23244140625,0.3643703758716583,0.8348754644393921,0.6019899845123291
1772740696877214000,1.2512138671875,0.19913621246814728,0.6384881138801575,0.4581354558467865
1772740696895986400,1.269986328125,0.12858334183692932,0.23334364593029022,0.5702258944511414
1772740696914759000,1.288759033203125,0.217308908700943,-0.17256435751914978,0.6904101371765137
1772740696933518300,1.307518310546875,0.38956785202026367,-0.530062735080719,0.6673506498336792
1772740696952303900,1.326303955078125,0.4769189953804016,-0.554649293422699,0.6875085830688477
1772740696971076400,1.345076416015625,0.529451847076416,-0.60825115442276,0.917645275592804
1772740696989835800,1.363835693359375,0.6381826996803284,-1.2739219665527344,0.45859357714653015
1772740697008621300,1.382621337890625,0.40544986724853516,-1.7283923625946045,-1.1039537191390991
1772740697027393800,1.401393798828125,-0.2832804024219513,-1.2598724365234375,-2.83830189704895
1772740697046153000,1.420153076171875,-1.0367605686187744,0.5175403356552124,-3.1058528423309326
1772740697064938500,1.4389384765625,-0.9718579649925232,2.141324996948242,-2.097191333770752
1772740697083711200,1.457711181640625,-0.2990097403526306,1.8902668952941895,-1.2621631622314453
1772740697102470400,1.476470458984375,0.2548760175704956,0.5580089688301086,-0.5799994468688965
1772740697121256200,1.495256103515625,0.5450284481048584,-0.6042806506156921,-0.06322269141674042
1772740697140028400,1.5140283203125,0.6759024858474731,-1.1378557682037354,0.17882554233074188
1772740697158787800,1.532787841796875,0.73255854845047,-1.0439379215240479,0.11636640131473541
1772740697177573400,1.551573486328125,0.7120952010154724,-0.616802990436554,-0.18997350335121155
1772740697196345900,1.570345947265625,0.668419599533081,-0.16691401600837708,-0.44332239031791687
1772740697215105300,1.589105224609375,0.6536065936088562,0.18798823654651642,-0.20967331528663635
1772740697233890800,1.607890869140625,0.647803544998169,0.36543938517570496,0.474475622177124
1772740697252663300,1.626663330078125,0.6212316751480103,0.34940463304519653,1.1465603113174438
1772740697271422700,1.645422607421875,0.5676298141479492,0.2907632887363434,1.4701566696166992
1772740697290208300,1.664208251953125,0.430341899394989,0.2348707765340805,1.440835952758789
1772740697308980700,1.682980712890625,0.21303297579288483,0.20692451298236847,1.1676344871520996
1772740697327753200,1.701753173828125,-0.01969982497394085,0.30343836545944214,0.8444963097572327
1772740697346525700,1.720525634765625,-0.20463383197784424,0.30084228515625,0.6004628539085388
1772740697365298200,1.739298095703125,-0.4017847776412964,0.30878329277038574,0.45111069083213806
1772740697384070700,1.758070556640625,-0.5195255875587463,0.28755635023117065,0.37475478649139404
1772740697402843100,1.776843017578125,-0.5231906771659851,0.1447708010673523,0.30985227227211
1772740697421615600,1.79561572265625,-0.4059080183506012,0.010995250195264816,0.2423536479473114
1772740697440375000,1.814375,-0.21058958768844604,-0.03145863488316536,0.3639122545719147
1772740697459160600,1.83316064453125,-0.06032116711139679,-0.09086353331804276,0.7322531342506409
1772740697477933000,1.85193310546875,0.11865708231925964,-0.3501681983470917,0.9494093656539917
1772740697496692500,1.8706923828125,0.2095206081867218,-0.7021689414978027,0.2895416021347046
1772740697515478000,1.88947802734375,0.15408621728420258,-0.740652322769165,-1.0280559062957764
1772740697534250500,1.90825048828125,-0.20631365478038788,-0.8338065147399902,-2.1013145446777344
1772740697553010000,1.927010009765625,-0.6757497787475586,-0.9043593406677246,-2.675358295440674
1772740697571795500,1.94579541015625,-0.9352071285247803,-0.7765395641326904,-2.984905242919922
1772740697590568000,1.96456787109375,-0.9042066335678101,-0.3892624080181122,-2.546164035797119
1772740697609327400,1.983327392578125,-0.4700469672679901,-0.20539739727973938,-1.5779712200164795
1772740697628113000,2.00211279296875,0.22066856920719147,-0.5656445622444153,-0.6577298045158386
1772740697646885400,2.020885498046875,0.8635852932929993,-1.1731321811676025,-0.39078953862190247
1772740697665644800,2.039644775390625,1.0387457609176636,-1.323706030845642,-0.6424586176872253
1772740697684430300,2.058430419921875,0.7014053463935852,-0.6100836992263794,-0.9109259843826294
1772740697703202800,2.077202880859375,0.29442837834358215,0.5239542126655579,-0.8151756525039673
1772740697721962200,2.095962158203125,0.14721418917179108,1.1891669034957886,-0.34757208824157715
1772740697740747800,2.114747802734375,0.2725905776023865,1.2708677053451538,0.39078953862190247
1772740697759520300,2.133520263671875,0.5050179958343506,0.9063445925712585,1.2707149982452393
1772740697778279700,2.15227978515625,0.5628957748413086,0.4381301999092102,1.9789924621582031
1772740697797065200,2.171065185546875,0.41293275356292725,0.18905723094940186,2.41819167137146
1772740697815837700,2.189837646484375,0.08780929446220398,0.1432436853647232,2.516232490539551
1772740697834610200,2.208610107421875,-0.22708246111869812,0.27411770820617676,2.253720998764038
1772740697853382700,2.227382568359375,-0.48012593388557434,0.4162923991680145,1.6987662315368652
1772740697872155100,2.246155029296875,-0.6743753552436829,0.4503471553325653,1.0114103555679321
1772740697890927600,2.264927734375,-0.8234221339225769,0.4674508571624756,0.43828290700912476
1772740697909700000,2.2837001953125,-0.8608365058898926,0.5234960913658142,0.2910687327384949
1772740697928472600,2.30247265625,-0.7539382576942444,0.4040754735469818,0.3136700689792633
1772740697947232000,2.32123193359375,-0.5291464328765869,0.11407572776079178,0.40514445304870605
1772740697966017500,2.340017578125,-0.24021568894386292,-0.26877278089523315,0.7119424939155579
1772740697984790000,2.3587900390625,0.047646086663007736,-0.893058717250824,1.2106993198394775
1772740698003549400,2.377549560546875,0.2757975459098816,-1.945395827293396,1.0839484930038452
1772740698022335000,2.3963349609375,0.14782503247261047,-2.091999053955078,-0.027946261689066887
1772740698041107500,2.415107421875,-0.40132665634155273,-0.9614735841751099,-1.4487769603729248
1772740698059867000,2.433866943359375,-0.9859074950218201,0.811357855796814,-2.1904983520507812
1772740698078652400,2.45265234375,-0.9376505613327026,2.0214462280273438,-2.1649954319000244
1772740698097425000,2.4714248046875,-0.24662958085536957,1.8285713195800781,-1.8493400812149048
1772740698116184300,2.490184326171875,0.5444176197052002,0.527161180973053,-1.484053373336792
1772740698134969900,2.508969970703125,0.99736088514328,-0.6114581227302551,-0.9578084945678711
1772740698153742600,2.52774267578125,1.1735903024673462,-1.2241379022598267,-0.38483378291130066
1772740698172501800,2.546501708984375,1.2731584310531616,-1.1467130184173584,-0.03023693896830082
1772740698191287300,2.565287353515625,1.287513256072998,-0.6094728708267212,-0.023975754156708717
1772740698210060000,2.58406005859375,1.1433533430099487,-0.21623992919921875,-0.13530266284942627
1772740698228819500,2.6028193359375,0.9223793745040894,-0.002748812548816204,-0.06306997686624527
1772740698247605000,2.62160498046875,0.7027797698974609,0.1178935244679451,0.208298921585083
1772740698266377500,2.64037744140625,0.5422796607017517,0.2739650011062622,0.5702258944511414
1772740698285137000,2.659136962890625,0.4355340898036957,0.4422534108161926,0.9397885203361511
1772740698303922400,2.67792236328125,0.33001023530960083,0.5766398310661316,1.235133171081543
1772740698322695000,2.69669482421875,0.14278554916381836,0.5737382769584656,1.4283136129379272
1772740698341454300,2.715454345703125,-0.09895725548267365,0.5212054252624512,1.3773078918457031
1772740698360239900,2.734239990234375,-0.3643703758716583,0.5387672781944275,1.0983033180236816
1772740698379012400,2.753012451171875,-0.587940514087677,0.6462764143943787,0.7403468489646912
1772740698397784800,2.771784912109375,-0.6960604786872864,0.7291989326477051,0.44637662172317505
1772740698416557300,2.790557373046875,-0.6540647149085999,0.6277982592582703,0.26632940769195557
1772740698435329800,2.809329833984375,-0.5544965863227844,0.4068242609500885,0.22509720921516418
1772740698454089200,2.828089111328125,-0.36696648597717285,0.14767232537269592,0.30740886926651
1772740698472874800,2.846874755859375,-0.08842013776302338,-0.07696675509214401,0.5665608048439026
1772740698491647200,2.865647216796875,0.19180603325366974,-0.23227466642856598,0.869846522808075
1772740698510406700,2.88440673828125,0.4390464723110199,-0.7249229550361633,0.42759308218955994
1772740698529192200,2.903192138671875,0.22876229882240295,-1.4000619649887085,-1.3942588567733765
1772740698547964700,2.921964599609375,-0.41537612676620483,-1.5005463361740112,-3.852613687515259
1772740698566724000,2.94072412109375,-1.2679661512374878,-0.6467345356941223,-4.887083530426025
1772740698585509600,2.959509521484375,-1.315917730331421,1.199093222618103,-3.228633165359497
1772740698604282000,2.9782822265625,-0.3962871730327606,1.376697063446045,-1.385859727859497
1772740698623041500,2.99704150390625,0.4491254389286041,0.43568679690361023,-0.35536038875579834
1772740698641827000,3.0158271484375,0.7571451663970947,-0.04153761267662048,0.3196258246898651
1772740698660599600,3.034599609375,0.7383615970611572,-0.026724567636847496,0.8295305967330933
1772740698679359000,3.05335888671875,0.6572716236114502,-0.07375980913639069,0.8942803740501404
1772740698698144500,3.07214453125,0.5601469278335571,-0.07559234648942947,0.3611634373664856
1772740698716917000,3.0909169921875,0.3912476599216461,0.10078980028629303,-0.2545706033706665
1772740698735676400,3.109676513671875,0.1122431829571724,0.28908345103263855,-0.5076140761375427
1772740698754462200,3.128462158203125,-0.17332790791988373,0.555565595626831,-0.2901524603366852
1772740698773234700,3.147234619140625,-0.3855973184108734,0.7817317843437195,0.26968905329704285
1772740698791993900,3.165993896484375,-0.46897798776626587,0.8040276765823364,0.9057337641716003
1772740698810779600,3.184779541015625,-0.4534013867378235,0.5063923597335815,1.31622314453125
1772740698829552000,3.20355224609375,-0.4031592011451721,0.10811996459960938,1.4461809396743774
1772740698848324600,3.22232470703125,-0.34314343333244324,-0.25258535146713257,1.339435338973999
1772740698867097000,3.24109716796875,-0.27197974920272827,-0.15927842259407043,0.8974873423576355
1772740698885869600,3.25986962890625,-0.19379130005836487,0.2348707765340805,0.24632415175437927
1772740698904629000,3.27862890625,-0.10811996459960938,0.5433486104011536,-0.2924431264400482
1772740698923414500,3.29741455078125,-0.05207473039627075,0.5679352283477783,-0.4234698712825775
1772740698942187000,3.31618701171875,-0.05787777900695801,0.3561239540576935,0.06581879407167435
1772740698960946400,3.334946533203125,-0.08124268800020218,-0.05100574716925621,0.707361102104187
1772740698979732000,3.35373193359375,0.03634541109204292,-0.6615476012229919,0.6542174220085144
1772740698998504400,3.37250439453125,-0.1426328420639038,-1.1592353582382202,-0.5280774831771851
1772740699017263900,3.391263916015625,-0.6574243903160095,-0.5990884304046631,-2.1211671829223633
1772740699036049400,3.41004931640625,-1.4585505723953247,1.3603568077087402,-2.6136627197265625
1772740699054822000,3.42882177734375,-1.8059699535369873,3.236421585083008,-1.9899876117706299
1772740699073581300,3.447581298828125,-1.5500248670578003,3.5591015815734863,-1.1742011308670044
1772740699092366800,3.466366943359375,-0.9793408513069153,2.371614456176758,-0.5441122055053711
1772740699111139300,3.485139404296875,-0.42484426498413086,0.5757235288619995,-0.13774605095386505
1772740699129898800,3.503898681640625,-0.021226942539215088,-0.6080984473228455,0.03833066672086716
1772740699148684500,3.5226845703125,0.16615045070648193,-1.078908920288086,-0.30099499225616455
1772740699167457000,3.54145703125,0.14813046157360077,-1.0184351205825806,-0.9306257963180542
1772740699186216400,3.560216552734375,-0.021226942539215088,-0.46699273586273193,-1.1160179376602173
1772740699205002000,3.579001953125,-0.23303823173046112,-0.08185353130102158,-0.9268079996109009
1772740699223774500,3.5977744140625,-0.34451785683631897,-0.2817533016204834,-0.5993938446044922
1772740699242547000,3.616546875,-0.35887277126312256,-0.4243861436843872,-0.27839362621307373
1772740699261319400,3.6353193359375,-0.4512633979320526,0.14186927676200867,0.13652436435222626
1772740699280092000,3.654091796875,-0.530062735080719,0.6691831946372986,0.5349494814872742
1772740699298851300,3.672851318359375,-0.5732801556587219,0.7247702479362488,0.7834116220474243
1772740699317636900,3.691636962890625,-0.6383354067802429,0.4485146105289459,1.050351858139038
1772740699336409300,3.710409423828125,-0.776692271232605,0.16783028841018677,1.2562073469161987
1772740699355181800,3.729181884765625,-0.8783983588218689,0.011300674639642239,1.2850699424743652
1772740699373954300,3.747954345703125,-0.7235485911369324,0.03161134570837021,1.11678147315979
1772740699392726800,3.766726806640625,-0.40636613965034485,-0.09452861547470093,0.8003626465797424
1772740699411486200,3.785486328125,-0.1585148572921753,-0.3642176687717438,0.45416492223739624
1772740699430271700,3.804271728515625,-0.06139015033841133,-0.825101912021637,0.04856235533952713
1772740699449044200,3.823044189453125,-0.2354816198348999,-0.983005940914154,-0.3530697226524353
1772740699467803600,3.8418037109375,-0.7287407517433167,-0.5691569447517395,-0.5464028716087341
1772740699486589400,3.86058935546875,-1.022558331489563,-0.1850867122411728,-0.695907711982727
1772740699505362000,3.87936181640625,-0.9086353182792664,-0.37765631079673767,-1.2850699424743652
1772740699524121300,3.898121337890625,-0.7195780873298645,-0.517998456954956,-1.9159224033355713
1772740699542907000,3.916906982421875,-0.6708629727363586,-0.29794076085090637,-1.8090242147445679
1772740699561679400,3.935679443359375,-0.5201364159584045,0.0038177953101694584,-1.313627004623413
1772740699580438800,3.954438720703125,-0.14400723576545715,-0.12354385852813721,-0.9862129092216492
1772740699599224300,3.973224365234375,0.1832541823387146,-0.34482327103614807,-0.8079982399940491
1772740699617996800,3.991996826171875,0.1447708010673523,-0.30572906136512756,-0.645207405090332
1772740699636756200,4.010756103515625,-0.08276980370283127,-0.20661908388137817,-0.6149705052375793
1772740699655541800,4.029541748046875,-0.13408097624778748,-0.17989452183246613,-0.700794517993927
1772740699674314200,4.048314208984375,-0.0328330397605896,-0.22998400032520294,-0.7821899056434631
1772740699693073700,4.06707373046875,0.022754060104489326,-0.1776038408279419,-0.7832589149475098
1772740699711859200,4.085859130859375,0.01710372418165207,0.015576604753732681,-0.7273663878440857
1772740699730631700,4.104631591796875,0.12888877093791962,0.0594048947095871,-0.5653391480445862
1772740699749391000,4.12339111328125,0.3689517378807068,-0.17913095653057098,-0.18310146033763885
1772740699768177000,4.142177001953125,0.6285618543624878,-0.3830012381076813,0.31596073508262634
1772740699786949400,4.160949462890625,0.7879929542541504,-0.3432961702346802,0.7779139876365662
1772740699805721900,4.179721923828125,0.8929060101509094,-0.20402298867702484,1.0830321311950684
1772740699824494300,4.198494384765625,0.9399412274360657,-0.07681404054164886,1.1648857593536377
1772740699843266800,4.217266845703125,0.8843541145324707,0.009009997360408306,1.0166025161743164
1772740699862039300,4.236039306640625,0.7072083950042725,0.11331216990947723,0.7601994276046753
1772740699880811800,4.254811767578125,0.6192464232444763,0.1557660549879074,0.5587725043296814
1772740699899584300,4.273584228515625,0.6216897964477539,0.033596597611904144,0.3417690396308899
1772740699918343700,4.29234375,0.5981721878051758,0.1304158866405487,-0.07360709458589554
1772740699937129200,4.311129150390625,0.32878854870796204,0.0988045409321785,-0.7244648337364197
1772740699955901700,4.329901611328125,0.07146912813186646,0.0068720318377017975,-0.5073086619377136
1772740699974661000,4.3486611328125,0.32603973150253296,0.629172682762146,0.5172349214553833
1772740699993447000,4.367447021484375,0.39140036702156067,0.8797727823257446,0.9411629438400269
1772740700012219400,4.386219482421875,0.16844113171100616,1.1581664085388184,0.7186617851257324
1772740700030978800,4.404978759765625,-0.10384403169155121,1.401283621788025,0.5877877473831177
1772740700049764400,4.423764404296875,-0.07773031294345856,1.4368654489517212,0.5296045541763306
1772740700068536800,4.442536865234375,0.22692975401878357,0.8842014074325562,0.3310792148113251
1772740700087296300,4.461296142578125,0.5572454333305359,0.41537612676620483,0.014660334214568138
1772740700106081800,4.480081787109375,0.6621584296226501,0.26159533858299255,-0.3564293682575226
1772740700124854300,4.498854248046875,0.5279247164726257,-0.0032069480512291193,-0.7844805717468262
1772740700143613700,4.51761376953125,0.4291202127933502,-0.30191126465797424,-0.9747595191001892
1772740700162399200,4.536399169921875,0.3083251416683197,-0.5943543910980225,-0.9675820469856262
1772740700181171700,4.555171630859375,0.1304158866405487,-0.8257128000259399,-0.668419599533081
1772740700199931100,4.57393115234375,-0.10674555599689484,-0.7966975569725037,-0.3817795515060425
1772740700218716700,4.592716552734375,-0.33504971861839294,-0.5479300022125244,-0.23777230083942413
1772740700237489400,4.611489501953125,-0.5822901725769043,-0.24494975805282593,-0.20066332817077637
1772740700256262000,4.630261962890625,-0.6971294283866882,-0.03405473381280899,0.011606098152697086
1772740700275034400,4.649034423828125,-0.645207405090332,0.2244863659143448,0.3820849657058716
1772740700293806800,4.667806884765625,-0.5302154421806335,0.16248537600040436,0.8568660020828247
1772740700312566300,4.686566162109375,-0.45385950803756714,0.009620844386518002,1.111131191253662
1772740700331351800,4.705351806640625,-0.45080527663230896,0.010689826682209969,1.0250016450881958
1772740700350124300,4.724124267578125,-0.47172680497169495,0.07513421028852463,0.719730794429779
1772740700368896800,4.742896728515625,-0.5083776116371155,0.09407047927379608,0.4506525695323944
1772740700387669200,4.761669189453125,-0.48638713359832764,-0.1388150453567505,0.3095468580722809
1772740700406441700,4.780441650390625,-0.5253286361694336,-0.43950459361076355,0.18997350335121155
1772740700425201200,4.799201171875,-0.5570927262306213,-0.6905628442764282,-0.18249061703681946
1772740700443987000,4.817987060546875,-0.6004628539085388,-0.8527427911758423,-0.73255854845047
1772740700462759400,4.836759521484375,-0.8154810667037964,-0.8258655071258545,-1.0408837795257568
1772740700481518800,4.855518798828125,-0.9510892033576965,-0.6766660213470459,-1.3000357151031494
1772740700500304400,4.874304443359375,-0.6022953987121582,-0.5638120174407959,-1.391204595565796
1772740700519076900,4.893076904296875,-0.02489202655851841,-0.48898324370384216,-1.0024003982543945
1772740700537849300,4.911849365234375,0.4172086715698242,-0.3939964771270752,-0.41949936747550964
1772740700556621800,4.930621826171875,0.6216897964477539,-0.416597843170166,-0.15652960538864136
1772740700575394300,4.949394287109375,0.5522059202194214,-0.3730749487876892,-0.09345962852239609
1772740700594153700,4.96815380859375,0.2683146595954895,-0.3623851239681244,-0.08078455179929733
1772740700612939500,4.986939453125,0.03894151374697685,-0.3170297145843506,-0.1769929975271225
1772740700631712000,5.0057119140625,-0.0198525357991457,-0.31199023127555847,-0.42789849638938904
1772740700650471400,5.024471435546875,0.027029991149902344,-0.19531841576099396,-0.672695517539978
1772740700669257000,5.043257080078125,0.062306419014930725,-0.014202198944985867,-0.7180509567260742
1772740700688029400,5.062029541015625,0.0787992998957634,0.04871506989002228,-0.5198310017585754
1772740700706788900,5.080788818359375,0.09727742522954941,0.046577103435993195,-0.23059484362602234
1772740700725574400,5.099574462890625,0.150421142578125,0.08292251825332642,0.02504473738372326
1772740700744347000,5.118346923828125,0.23471805453300476,0.08490777015686035,0.305576354265213
1772740700763119400,5.137119384765625,0.26220619678497314,0.1698155403137207,0.5169295072555542
1772740700781891800,5.155891845703125,0.27686652541160583,0.1948602795600891,0.6447492837905884
1772740700800664600,5.17466455078125,0.2811424434185028,0.17378604412078857,0.6884248852729797
1772740700819437000,5.19343701171875,0.22692975401878357,0.23151111602783203,0.8043331503868103
1772740700838209500,5.21220947265625,0.15362808108329773,0.18753011524677277,0.7091936469078064
1772740700856982000,5.23098193359375,0.1113269105553627,0.26602399349212646,0.4885250926017761
1772740700875741400,5.249741455078125,0.18875180184841156,0.3243598937988281,0.3692571818828583
1772740700894527000,5.26852685546875,0.3292466700077057,0.2041756957769394,0.5057815313339233
1772740700913299500,5.287299560546875,0.34131091833114624,-0.21181128919124603,0.893058717250824
1772740700932059000,5.306058837890625,0.051769305020570755,-0.929404079914093,0.7631009221076965
1772740700950844700,5.3248447265625,-0.3158080279827118,-0.8234221339225769,0.2683146595954895
1772740700969617200,5.3436171875,-0.5192201733589172,0.10338589549064636,-0.6441384553909302
1772740700988376600,5.36237646484375,-0.31596073508262634,0.5925218462944031,-1.2123790979385376
1772740701007162000,5.381162109375,-0.0784938707947731,0.7237012982368469,-0.9578084945678711
1772740701025934600,5.3999345703125,0.20310671627521515,0.47142136096954346,-0.36605021357536316
1772740701044694000,5.418694091796875,0.4778352677822113,0.09773556143045425,-0.41232189536094666
1772740701063479600,5.4374794921875,0.6784985661506653,0.03833066672086716,-0.9698727130889893
1772740701082252000,5.456251953125,0.638029932975769,0.0853659063577652,-1.3385190963745117
1772740701101011500,5.475011474609375,0.5155550837516785,0.04306473210453987,-1.2039799690246582
1772740701119797000,5.493796875,0.4375193417072296,-0.019241688773036003,-0.6901046633720398
1772740701138569700,5.51256982421875,0.4164451062679291,-0.11529742181301117,-0.2276933193206787
1772740701157329200,5.5313291015625,0.3640649616718292,0.018019994720816612,0.003359660040587187
1772740701176114700,5.55011474609375,0.1754658818244934,0.08765657991170883,0.062153708189725876
1772740701194887200,5.56888720703125,0.09177979826927185,0.18875180184841156,0.06154286116361618
1772740701213646600,5.587646484375,0.16798299551010132,0.32069480419158936,0.14080029726028442
1772740701232432000,5.60643212890625,0.24556060135364532,0.47264307737350464,0.32130566239356995
1772740701251204600,5.62520458984375,0.22723518311977386,0.4813476502895355,0.5551074743270874
1772740701269964000,5.643964111328125,0.13942588865756989,0.42514967918395996,0.7333221435546875
1772740701288749800,5.662749755859375,0.05482354015111923,0.3694098889827728,0.7925743460655212
1772740701307522300,5.681522216796875,-0.0325276181101799,0.3836120665073395,0.6814001202583313
1772740701326294800,5.700294677734375,-0.1107160672545433,0.3426853120326996,0.5161659121513367
1772740701345067300,5.7190673828125,-0.1575985997915268,0.10689827054738998,0.4618005156517029
1772740701363839700,5.73783984375,-0.20081603527069092,-0.08246438205242157,0.409420371055603
1772740701382599200,5.75659912109375,-0.18126893043518066,-0.26632940769195557,0.36696648597717285
1772740701401385000,5.775385009765625,-0.08582404255867004,-0.5230379700660706,0.4485146105289459
1772740701420157400,5.794157470703125,0.051616594195365906,-0.8121214509010315,0.41415444016456604
1772740701438916900,5.812916748046875,-0.07177454978227615,-1.1358704566955566,-0.2095206081867218
1772740701457702400,5.831702392578125,-0.5360184907913208,-1.1909993886947632,-1.6879236698150635
1772740701476475000,5.850474853515625,-0.7679877281188965,-0.9206995368003845,-2.863957405090332
1772740701495234300,5.869234375,-0.6216897964477539,-0.2101314514875412,-2.491187810897827
1772740701514020000,5.88802001953125,-0.13682979345321655,0.05619794875383377,-1.1925265789031982
1772740701532792600,5.90679248046875,0.49356457591056824,-0.3571929335594177,0.0988045409321785
1772740701551552000,5.925552001953125,0.9278770089149475,-0.674680769443512,0.5679352283477783
1772740701570337500,5.944337646484375,0.844649076461792,-0.5248705148696899,0.34971004724502563
1772740701589110000,5.963110107421875,0.4934118688106537,-0.06047387793660164,-0.06581879407167435
1772740701607869400,5.981869384765625,0.22586077451705933,0.2032594233751297,-0.20753535628318787
1772740701626655000,6.000655029296875,0.130721315741539,0.2527380585670471,-0.004734066314995289
1772740701645427500,6.019427490234375,0.19684553146362305,0.0978882759809494,0.20127417147159576
1772740701664187000,6.038186767578125,0.25060009956359863,-0.0022906772792339325,0.29412296414375305
1772740701682972700,6.05697265625,0.31473904848098755,-0.0035123717971146107,0.26067906618118286
1772740701701745200,6.0757451171875,0.4280512034893036,0.1122431829571724,0.2721324563026428
1772740701720504600,6.094504638671875,0.5496098399162292,0.16111096739768982,0.4706578254699707
1772740701739290000,6.1132900390625,0.6145123243331909,0.019088976085186005,0.7253811359405518
1772740701758062800,6.132062744140625,0.5700731873512268,-0.1435490995645523,0.8305995464324951
1772740701776835300,6.15083544921875,0.4682144224643707,-0.23991025984287262,0.7400414347648621
1772740701795607800,6.16960791015625,0.3521534502506256,-0.18401773273944855,0.5358657836914062
1772740701814380300,6.18838037109375,0.2739650011062622,-0.06719319522380829,0.4259132444858551
1772740701833139700,6.2071396484375,0.30191126465797424,-0.04474456235766411,0.49051034450531006
1772740701851925200,6.22592529296875,0.42163732647895813,-0.09330692142248154,0.5422796607017517
1772740701870697700,6.24469775390625,0.518609344959259,-0.14064757525920868,0.4724903404712677
1772740701889457200,6.26345703125,0.4485146105289459,-0.4503471553325653,0.2435753494501114
1772740701908243000,6.282242919921875,0.15530791878700256,-1.2171131372451782,0.04703523963689804
1772740701927015400,6.301015380859375,-0.10430216789245605,-1.851325273513794,-0.08124268800020218
1772740701945774800,6.31977490234375,-0.22570806741714478,-1.431978702545166,-0.7725690603256226
1772740701964560400,6.338560302734375,-0.35536038875579834,-0.12843063473701477,-1.6312675476074219
1772740701983332900,6.357332763671875,-0.41140562295913696,0.8852704167366028,-1.6715835332870483
1772740702002092500,6.376092529296875,-0.353985995054245,1.0714260339736938,-0.9121476411819458
1772740702020878000,6.394878173828125,-0.22601348161697388,0.8199097514152527,-0.26785650849342346
1772740702039650600,6.413650634765625,-0.08796200156211853,0.6016845703125,-0.25258535146713257
1772740702058410000,6.432409912109375,-0.072232685983181,0.446529358625412,-0.7178982496261597
1772740702077195500,6.451195556640625,-0.09666658192873001,0.37506023049354553,-1.1512943506240845
1772740702095968300,6.46996826171875,-0.06368082761764526,0.3823903799057007,-1.03996741771698
1772740702114727700,6.488727783203125,-0.021990500390529633,0.2930539846420288,-0.4934118688106537
1772740702133513200,6.50751318359375,-0.06826218217611313,0.3455868363380432,0.01832541823387146
1772740702152285700,6.52628564453125,-0.16095824539661407,0.4950917065143585,0.34375429153442383
1772740702171045000,6.545045166015625,-0.16019469499588013,0.5488462448120117,0.5457920432090759
1772740702189830700,6.56383056640625,-0.10644013434648514,0.4527905285358429,0.7136223316192627
1772740702208603400,6.582603271484375,-0.1629435122013092,0.19501298666000366,0.9442171454429626
1772740702227362800,6.60136279296875,-0.3458922505378723,0.06734590977430344,1.1856545209884644
1772740702246148400,6.6201484375,-0.48806697130203247,0.24617144465446472,1.2100883722305298
1772740702264920800,6.6389208984375,-0.4333961308002472,0.44362783432006836,0.9700254201889038
1772740702283693300,6.657693359375,-0.25655585527420044,0.53143709897995,0.6786513328552246
1772740702302466000,6.676466064453125,-0.14370182156562805,0.511431872844696,0.5360184907913208
1772740702321238500,6.695238525390625,-0.06734590977430344,0.349251925945282,0.70797199010849
1772740702340011000,6.714010986328125,0.007330167107284069,0.10598199814558029,1.0914313793182373
1772740702358783500,6.732783447265625,0.1188097894191742,-0.33886751532554626,1.3980766534805298
1772740702377556000,6.751555908203125,0.2623589038848877,-0.6584933400154114,1.236812949180603
1772740702396315400,6.7703154296875,0.35917818546295166,-0.797613799571991,0.786771297454834
1772740702415101200,6.78910107421875,0.1169772520661354,-1.050046443939209,0.3374931216239929
1772740702433873700,6.807873779296875,-0.4112529158592224,-1.2168077230453491,-0.7870767116546631
1772740702452633000,6.826633056640625,-0.5787777900695801,-0.564117431640625,-2.2889974117279053
1772740702471418600,6.845418701171875,-0.32512345910072327,0.06688777357339859,-2.1283445358276367
1772740702490191400,6.86419140625,-0.07650861889123917,-0.4662291705608368,-0.37353309988975525
1772740702508963800,6.8829638671875,-0.03008422814309597,-1.0520316362380981,0.5479300022125244
1772740702527736300,6.901736328125,0.09590301662683487,-0.7554653286933899,-0.15652960538864136
1772740702546508800,6.9205087890625,0.30572906136512756,-0.16492876410484314,-1.0169079303741455
1772740702565268200,6.939268310546875,0.27442312240600586,-0.08032641559839249,-1.0445488691329956
1772740702584053800,6.9580537109375,0.008093725889921188,-0.26999449729919434,-0.6972821354866028
1772740702602826500,6.976826416015625,-0.09620844572782516,-0.09284878522157669,-0.4614951014518738
1772740702621586000,6.9955859375,-0.011453386396169662,0.12293300777673721,-0.24754585325717926
1772740702640371500,7.014371337890625,0.013438640162348747,0.4262186884880066,-0.07971556484699249
1772740702659144000,7.03314404296875,0.03130592033267021,0.39384377002716064,0.14248012006282806
1772740702677903400,7.0519033203125,0.016798298805952072,0.1844758689403534,0.25350162386894226
1772740702696689200,7.070689208984375,-0.04062134400010109,0.23593975603580475,0.20051060616970062
1772740702715461600,7.089461669921875,-0.006413896102458239,0.2283041626214981,0.32817769050598145
1772740702734221000,7.108220947265625,0.07864658534526825,0.04337015375494957,0.6394043564796448
1772740702753006600,7.127006591796875,0.12629267573356628,-0.013591351918876171,0.8044858574867249
1772740702771779300,7.145779296875,0.09208522737026215,-0.019241688773036003,0.6789567470550537
1772740702790551800,7.1645517578125,0.029167955741286278,0.07589777559041977,0.39292749762535095
1772740702809324300,7.18332421875,-0.027182703837752342,0.1916533261537552,0.24525517225265503
1772740702828096800,7.2020966796875,0.003970507066696882,0.23120568692684174,0.3226800560951233
1772740702846856200,7.220856201171875,0.03023693896830082,0.296108216047287,0.4637857675552368
1772740702865642000,7.23964208984375,0.06765133142471313,0.0791047215461731,0.5476245880126953
1772740702884414500,7.25841455078125,0.04107947647571564,-0.5097520351409912,0.48730340600013733
1772740702903174000,7.277173828125,-0.1175880953669548,-0.9614735841751099,-0.22509720921516418
1772740702921959400,7.29595947265625,-0.20875705778598785,-0.5030327439308167,-1.621341347694397
1772740702940732000,7.31473193359375,-0.12888877093791962,0.4981459379196167,-2.0229732990264893
1772740702959491600,7.33349169921875,0.024128466844558716,0.40819868445396423,-0.9797990322113037
1772740702978277000,7.352277099609375,0.2426590770483017,-0.1453816443681717,0.10231691598892212
1772740702997049600,7.371049560546875,0.38422292470932007,0.04504998400807381,0.32970482110977173
1772740703015809000,7.38980908203125,0.44546034932136536,0.3846810758113861,-0.11972606182098389
1772740703034594800,7.4085947265625,0.5612159371376038,0.2901524603366852,-0.7805100679397583
1772740703053367300,7.4273671875,0.5838172435760498,0.11987877637147903,-1.0413419008255005
1772740703072126700,7.446126708984375,0.4446968138217926,0.15469707548618317,-0.8499939441680908
1772740703090912300,7.464912353515625,0.31137940287590027,-0.00519220158457756,-0.4556920528411865
1772740703109684700,7.483684814453125,0.20539739727973938,-0.11056335270404816,-0.05008947476744652
1772740703128444400,7.5024443359375,0.1053711548447609,-0.004275931045413017,0.282364159822464
1772740703147230000,7.52122998046875,0.050547610968351364,0.018019994720816612,0.5376983284950256
1772740703166002400,7.54000244140625,0.04504998400807381,0.15210096538066864,0.6305471062660217
1772740703184761900,7.558761962890625,0.04871506989002228,0.25350162386894226,0.6485670804977417
1772740703203547600,7.577547607421875,0.03634541109204292,0.41201648116111755,0.636350154876709
1772740703222320000,7.596320068359375,0.008246437646448612,0.46393850445747375,0.6068767309188843
1772740703241079600,7.61507958984375,-0.03695625811815262,0.4190412163734436,0.6132906675338745
1772740703259865000,7.633864990234375,-0.0984991192817688,0.3384093940258026,0.6667397618293762
1772740703278637600,7.652637451171875,-0.12827792763710022,0.25976279377937317,0.6650599241256714
1772740703297410300,7.671410400390625,-0.1569877415895462,0.2020377367734909,0.6636855602264404
1772740703316182800,7.690182861328125,-0.23991025984287262,0.08612946420907974,0.6106945276260376
1772740703334955300,7.708955322265625,-0.28572380542755127,0.011911521665751934,0.41949936747550964
1772740703353714700,7.727714599609375,-0.3083251416683197,-0.06368082761764526,0.3706315755844116
1772740703372500200,7.746500244140625,-0.4088095426559448,-0.2367033064365387,0.31504446268081665
1772740703391273000,7.76527294921875,-0.6073349118232727,-0.29030516743659973,-0.18615570664405823
1772740703410032400,7.784032470703125,-0.9451334476470947,-0.22402822971343994,-1.0755493640899658
1772740703428818000,7.80281787109375,-1.1578609943389893,-0.05467082932591438,-1.6382923126220703
1772740703447590400,7.82159033203125,-0.9889616966247559,0.07391251623630524,-1.657381296157837
1772740703466350000,7.84035009765625,-0.47325390577316284,0.05482354015111923,-1.4773341417312622
1772740703485135600,7.859135498046875,0.029167955741286278,0.2507528066635132,-0.7829535007476807
1772740703503908000,7.877908203125,0.448820024728775,0.007482878863811493,0.11315945535898209
1772740703522667500,7.89666748046875,0.6455128192901611,-0.09468132257461548,0.3423798978328705
1772740703541453300,7.915453369140625,0.50196373462677,0.09071081876754761,0.09804098308086395
1772740703560225800,7.934225830078125,0.23991025984287262,0.19837264716625214,-0.2079934924840927
1772740703578985200,7.952985107421875,0.14400723576545715,0.1913478970527649,-0.4220954477787018
1772740703597770800,7.971770751953125,0.21791976690292358,0.11438114941120148,-0.35887277126312256
1772740703616543200,7.990543212890625,0.3503209054470062,0.19180603325366974,-0.2017323076725006
1772740703635303000,8.009302978515626,0.40468630194664,0.3846810758113861,-0.04856235533952713
1772740703654088400,8.02808837890625,0.3564293682575226,0.42072105407714844,0.11422843486070633
1772740703672861000,8.04686083984375,0.31565532088279724,0.31229567527770996,0.2560977041721344
1772740703691620400,8.065620361328126,0.34696123003959656,0.3602471649646759,0.44042086601257324
1772740703710406100,8.08440625,0.45080527663230896,0.37292224168777466,0.8191461563110352
1772740703729178600,8.1031787109375,0.5241069197654724,0.2611372172832489,1.0669974088668823
1772740703747938000,8.12193798828125,0.43324342370033264,0.1388150453567505,1.0202676057815552
1772740703766723600,8.1407236328125,0.19394400715827942,0.11926792562007904,0.7444701194763184
1772740703785496300,8.159496337890625,0.025502873584628105,0.19119518995285034,0.5152496695518494
1772740703804268800,8.178268798828125,-0.046577103435993195,0.21791976690292358,0.43981003761291504
1772740703823041300,8.197041259765625,-0.10750912129878998,0.1426328420639038,0.5254813432693481
1772740703841813800,8.215813720703125,-0.08918370306491852,0.13087402284145355,0.666128933429718
1772740703860573200,8.2345732421875,-0.0462716780602932,-0.11331216990947723,0.925739049911499
1772740703879359000,8.25335888671875,-0.12522368133068085,-0.7539382576942444,1.0421054363250732
1772740703898131500,8.27213134765625,-0.38071054220199585,-1.505585789680481,0.6404733657836914
1772740703916891000,8.290890869140625,-0.6487197875976562,-1.633100152015686,-0.13927318155765533
1772740703935676400,8.309676513671874,-0.6861341595649719,-0.6613948941230774,-1.0259180068969727
1772740703954449200,8.32844921875,-0.5077667832374573,-0.0662769302725792,-1.1711468696594238
1772740703973208600,8.34720849609375,-0.3611634373664856,0.1459924876689911,-0.5978667736053467
1772740703991994000,8.365994140625,-0.09086353331804276,0.4556920528411865,0.08628217875957489
1772740704010766800,8.384766845703124,0.18142163753509521,0.4092676639556885,0.27350685000419617
1772740704029526300,8.4035263671875,0.12843063473701477,0.12064233422279358,-0.12369657307863235
1772740704048311800,8.422311767578124,0.046424392610788345,-0.038483377546072006,-0.8286142945289612
1772740704067084300,8.441084228515624,0.10918894410133362,-0.11896250396966934,-1.1465603113174438
1772740704085843700,8.45984375,0.15500248968601227,-0.2441861927509308,-0.9436063170433044
1772740704104629500,8.47862939453125,0.08933641016483307,-0.41048935055732727,-0.5777087807655334
1772740704123402000,8.497402099609374,0.012064233422279358,-0.5283828973770142,-0.37735089659690857
1772740704142161400,8.516161376953125,0.00030542362947016954,-0.4040754735469818,-0.48363831639289856
1772740704160947000,8.534947021484374,0.12400199472904205,-0.1692046970129013,-0.5914528369903564
1772740704179719700,8.5537197265625,0.2473931461572647,-0.09376505762338638,-0.3674246370792389
1772740704198479000,8.57247900390625,0.3023693859577179,-0.10246963053941727,0.03771981969475746
1772740704217264600,8.5912646484375,0.32817769050598145,0.05497625470161438,0.3352024257183075
1772740704236037400,8.610037353515626,0.36101073026657104,0.2429644912481308,0.5280774831771851
1772740704254796800,8.628796875,0.4068242609500885,0.31473904848098755,0.6801784038543701
1772740704273582300,8.647582275390626,0.39598172903060913,0.21425467729568481,0.7942541241645813
1772740704292354800,8.666354736328126,0.30633988976478577,0.025655584409832954,0.8699992299079895
1772740704311127300,8.685127197265626,0.22097399830818176,-0.16019469499588013,0.8921424150466919
1772740704329900000,8.703900146484376,0.14660334587097168,-0.1253764033317566,0.8951966762542725
1772740704348672500,8.722672607421876,0.13240113854408264,0.09895725548267365,0.8092198967933655
1772740704367432000,8.741431884765625,0.09575030952692032,0.04749337583780289,0.7018635272979736
1772740704386217500,8.760217529296876,-0.04459185153245926,-0.12995775043964386,0.6426113247871399
1772740704404990200,8.778990234375,-0.2811424434185028,-0.4769189953804016,0.5170822143554688
1772740704423749600,8.79774951171875,-0.4775298535823822,-0.8063184022903442,0.08215895295143127
1772740704442535200,8.81653515625,-0.647192656993866,-0.647192656993866,-0.8596147894859314
1772740704461308000,8.835307861328126,-0.6415423154830933,-0.3915531039237976,-1.6934213638305664
1772740704480067300,8.8540673828125,-0.31977853178977966,-0.28602921962738037,-1.479777455329895
1772740704498852900,8.872852783203125,0.0778830274939537,-0.3399364948272705,-0.5077667832374573
1772740704517625300,8.891625244140625,0.3348970115184784,-0.45981526374816895,-0.0787992998957634
1772740704536384800,8.910384765625,0.4518742561340332,-0.2041756957769394,-0.3480302393436432
1772740704555170600,8.929170654296875,0.3252761662006378,0.13056860864162445,-0.6859814524650574
1772740704573943000,8.947943115234375,0.1438545286655426,0.23593975603580475,-0.7566870450973511
1772740704592702500,8.966702392578124,0.11346487700939178,0.17836740612983704,-0.5829010009765625
1772740704611488300,8.98548828125,0.16111096739768982,0.19623468816280365,-0.3826957941055298
1772740704630260700,9.0042607421875,0.21120044589042664,0.28541839122772217,-0.16630317270755768
1772740704649020200,9.023020263671874,0.30099499225616455,0.35917818546295166,0.10292776674032211
1772740704667805700,9.0418056640625,0.4109475016593933,0.3703261613845825,0.3095468580722809
1772740704686578200,9.060578125,0.5213581323623657,0.5209000110626221,0.44668206572532654
1772740704705337900,9.079337890625,0.6415423154830933,0.6328377723693848,0.638029932975769
1772740704724123400,9.098123291015625,0.7350019812583923,0.6736118197441101,0.8687775135040283
1772740704742895900,9.116895751953125,0.7997517585754395,0.5697677731513977,1.0434798002243042
1772740704761668600,9.135668701171875,0.7125533223152161,0.5210527181625366,0.9600991606712341
1772740704780441000,9.154441162109375,0.5306735634803772,0.5059342384338379,0.8105943202972412
1772740704799213600,9.173213623046875,0.33535513281822205,0.45920443534851074,0.7710419297218323
1772740704817986000,9.191986083984375,0.16935740411281586,0.5008947253227234,0.8353336453437805
1772740704836758800,9.2107587890625,0.051616594195365906,0.585038959980011,0.8399149775505066
1772740704855531300,9.22953125,-0.08811471611261368,0.517693042755127,0.8101361989974976
1772740704874290700,9.248290771484376,-0.25289076566696167,0.28602921962738037,0.6639909744262695
1772740704893076200,9.267076171875,-0.43477052450180054,-0.8767185211181641,0.24815669655799866
1772740704911849000,9.285848876953125,-0.6216897964477539,-1.3513468503952026,-0.8342646360397339
1772740704930608400,9.3046083984375,-0.9717052578926086,-0.7550072073936462,-2.589534282684326
1772740704949394000,9.323393798828125,-1.0472975969314575,-0.05497625470161438,-3.0655369758605957
