time,seconds_elapsed,z,y,x
1772740755960105700,0.295105712890625,0.4622650146484375,0.10926604270935059,0.30726122856140137
1772740755978878200,0.313878173828125,-0.04593944549560547,0.1879565715789795,0.5663649439811707
1772740755997650700,0.332650634765625,-0.5503673553466797,0.035904645919799805,0.6822522282600403
1772740756016423200,0.351423095703125,-1.3181757926940918,-0.3771326541900635,0.9637748003005981
1772740756035195600,0.370195556640625,-1.4696426391601562,0.4970533847808838,1.0788471698760986
1772740756053968100,0.388968017578125,-1.5227928161621094,1.2131905555725098,0.964358925819397
1772740756072740600,0.40774072265625,-0.9010248184204102,1.5143520832061768,0.9072268009185791
1772740756091513000,0.42651318359375,-0.00667572021484375,0.7264218330383301,1.4799052476882935
1772740756110285600,0.44528564453125,-0.5057449340820312,0.33139491081237793,1.5518778562545776
1772740756129057800,0.464057861328125,-1.077977180480957,0.6226601600646973,1.276353120803833
1772740756147830300,0.482830322265625,-1.6540250778198242,0.31855082511901855,1.0317509174346924
1772740756166602800,0.501602783203125,-1.1738967895507812,-0.04923367500305176,0.6190717220306396
1772740756185375200,0.520375244140625,-0.2614126205444336,0.035164833068847656,0.2612966299057007
1772740756204147700,0.539147705078125,0.3382577896118164,-0.3078436851501465,0.17485976219177246
1772740756222920200,0.557920166015625,0.6517467498779297,-0.2599811553955078,-0.042551398277282715
1772740756241692700,0.576692626953125,1.3640556335449219,0.04607963562011719,0.028560400009155273
1772740756260465200,0.595465087890625,1.8563671112060547,0.3847923278808594,0.12931859493255615
1772740756279237600,0.614237548828125,1.1977500915527344,0.18144965171813965,0.4533717632293701
1772740756298009900,0.633009765625,0.4437885284423828,-0.28814220428466797,0.5847796201705933
1772740756316782300,0.6517822265625,0.4715442657470703,-0.9692509174346924,0.6598073244094849
1772740756335554800,0.670554931640625,1.080531120300293,-1.4340839385986328,0.5340697169303894
1772740756354327300,0.689327392578125,1.7606945037841797,-1.8617764711380005,0.5966274738311768
1772740756373099800,0.708099853515625,1.3971948623657227,-2.0105457305908203,0.7623749375343323
1772740756391872300,0.726872314453125,0.18551254272460938,-1.799349308013916,0.9885975122451782
1772740756410644700,0.745644775390625,0.4291677474975586,-1.0008423328399658,0.4121171832084656
1772740756429417200,0.764417236328125,0.46179962158203125,-0.2825641632080078,0.532119870185852
1772740756448189700,0.783189697265625,0.9101066589355469,-0.27329349517822266,0.8664060235023499
1772740756466962200,0.801962158203125,1.4911956787109375,-0.745330810546875,1.266589879989624
1772740756485734400,0.820734375,1.6283235549926758,-1.0909004211425781,1.4589647054672241
1772740756504507000,0.8395068359375,1.1288490295410156,-1.2789106369018555,1.2776787281036377
1772740756523279400,0.858279296875,0.2371816635131836,-1.4367161989212036,1.0871840715408325
1772740756542051800,0.8770517578125,-0.4279651641845703,-1.415296196937561,0.9266654253005981
1772740756560824300,0.89582421875,-0.8250637054443359,-1.2185211181640625,0.8017004132270813
1772740756579596800,0.9145966796875,-1.2087392807006836,-1.0733957290649414,0.8550832271575928
1772740756598369300,0.933369384765625,-1.6372313499450684,-0.8244385719299316,0.8860431909561157
1772740756617141800,0.952141845703125,-1.8053016662597656,-0.4339790344238281,0.890212893486023
1772740756635914200,0.970914306640625,-1.7117209434509277,-0.11388206481933594,0.8369947075843811
1772740756654686700,0.989686767578125,-1.2671737670898438,0.08569455146789551,0.7380881905555725
1772740756673459000,1.008458984375,-0.5908355712890625,-0.010197639465332031,0.7987967729568481
1772740756692231400,1.0272314453125,-0.11210346221923828,-0.26521944999694824,0.9539806246757507
1772740756711004000,1.04600390625,-0.051192283630371094,-0.20688700675964355,0.8867272138595581
1772740756729776400,1.0647763671875,-0.1218414306640625,0.08574104309082031,0.6922489404678345
1772740756748548900,1.083548828125,-0.09859657287597656,0.36831188201904297,0.5422921180725098
1772740756767321300,1.1023212890625,0.2245044708251953,0.5733513832092285,0.42609158158302307
1772740756786093800,1.12109375,0.15974903106689453,0.4034278392791748,0.5378742814064026
1772740756804866300,1.1398662109375,0.05413627624511719,0.38411903381347656,0.46226614713668823
1772740756823638800,1.158638671875,0.3212566375732422,0.4263017177581787,0.43268874287605286
1772740756842411000,1.177410888671875,0.48710060119628906,0.515070915222168,0.40116754174232483
1772740756861183500,1.19618359375,0.7497062683105469,0.5456745624542236,0.44729477167129517
1772740756879956000,1.2149560546875,1.0624008178710938,0.611196756362915,0.5259091854095459
1772740756898728400,1.233728515625,1.017319679260254,1.101984977722168,0.3621668815612793
1772740756917501000,1.2525009765625,1.1720142364501953,1.417982816696167,0.3401505947113037
1772740756936273400,1.2712734375,2.038723945617676,1.5451209545135498,0.48797160387039185
1772740756955032800,1.29003271484375,3.3797388076782227,1.1149406433105469,0.5967733263969421
1772740756973818400,1.308818359375,4.4771928787231445,0.18239974975585938,0.6492359042167664
1772740756992590800,1.3275908203125,4.67918586730957,-0.829089879989624,0.7689163684844971
1772740757011363300,1.34636328125,3.9671592712402344,-1.5288203954696655,0.7130927443504333
1772740757030135600,1.365135498046875,2.527933120727539,-1.7469983100891113,0.5056331157684326
1772740757048908000,1.383907958984375,0.8734550476074219,-1.4841763973236084,0.2997002601623535
1772740757067667500,1.40266748046875,-0.6085672378540039,-1.102959394454956,0.18186235427856445
1772740757086453000,1.421452880859375,-1.5013799667358398,-0.7724440097808838,0.04065293073654175
1772740757105225500,1.4402255859375,-1.6373291015625,-0.5639052391052246,-0.07740932703018188
1772740757123998000,1.458998046875,-1.0250558853149414,-0.6210839748382568,-0.003052234649658203
1772740757142770400,1.4777705078125,0.0706186294555664,-0.8608837127685547,0.16026878356933594
1772740757161543000,1.49654296875,1.0409307479858398,-1.2146053314208984,0.34705647826194763
1772740757180315400,1.5153154296875,1.6911163330078125,-1.6145230531692505,0.48643067479133606
1772740757199087900,1.534087890625,1.744908332824707,-2.0346086025238037,0.549640953540802
1772740757217860400,1.5528603515625,1.0613832473754883,-2.3736021518707275,0.49043017625808716
1772740757236619500,1.57161962890625,-0.1365365982055664,-2.5021378993988037,0.3913479745388031
1772740757255405000,1.590405029296875,-1.2776918411254883,-2.4805989265441895,0.36044251918792725
1772740757274177500,1.609177490234375,-2.115060806274414,-2.1718101501464844,0.2688159942626953
1772740757292950000,1.627949951171875,-2.6371469497680664,-1.9108002185821533,0.18960431218147278
1772740757311722500,1.646722412109375,-2.877012252807617,-1.775916576385498,0.09896546602249146
1772740757330495000,1.665494873046875,-2.9630699157714844,-1.879986047744751,0.04713895916938782
1772740757349267500,1.684267333984375,-2.876682758331299,-2.072249174118042,0.07271409034729004
1772740757368040000,1.7030400390625,-2.655978202819824,-2.1083450317382812,-0.008630961179733276
1772740757386812400,1.7218125,-2.306112289428711,-2.075990915298462,-0.13418319821357727
1772740757405585000,1.7405849609375,-2.007448196411133,-2.1257619857788086,-0.19398429989814758
1772740757424357400,1.759357421875,-1.755476474761963,-2.054511070251465,-0.19509920477867126
1772740757443129600,1.778129638671875,-1.320570468902588,-1.7369568347930908,-0.2396279275417328
1772740757461902000,1.796902099609375,-0.6251401901245117,-1.6220905780792236,-0.012646913528442383
1772740757480674600,1.815674560546875,0.6161041259765625,-1.6610679626464844,0.41427427530288696
1772740757499447000,1.834447021484375,2.024905204772949,-1.8899439573287964,0.8128423690795898
1772740757518219500,1.853219482421875,2.3286304473876953,-1.9584733247756958,1.0732799768447876
1772740757536992000,1.871991943359375,2.1397275924682617,-1.474265217781067,1.1328258514404297
1772740757555764500,1.890764404296875,2.088033676147461,-0.7389407157897949,1.2219780683517456
1772740757574537000,1.909536865234375,2.5480823516845703,-0.0696110725402832,1.3337061405181885
1772740757593309400,1.928309326171875,3.259174346923828,0.14190936088562012,1.4599730968475342
1772740757612082000,1.94708203125,3.1786670684814453,-0.31621718406677246,1.5183953046798706
1772740757630854400,1.9658544921875,2.3468456268310547,-0.6801937818527222,1.3049678802490234
1772740757649626600,1.984626708984375,1.2442312240600586,-0.7027677297592163,1.1234291791915894
1772740757668399000,2.003399169921875,0.2251596450805664,-0.4840124845504761,1.1738134622573853
1772740757687171600,2.022171630859375,-0.106536865234375,-0.06993913650512695,1.414526104927063
1772740757705944000,2.040944091796875,0.25861644744873047,0.21286606788635254,1.8022871017456055
1772740757724716500,2.059716552734375,0.5516080856323242,0.3377254009246826,2.0596745014190674
1772740757743489000,2.078489013671875,0.7561759948730469,0.4124274253845215,2.044313430786133
1772740757762261500,2.097261474609375,1.014571189880371,0.28348398208618164,1.8530303239822388
1772740757781034000,2.116033935546875,1.134500503540039,-0.03236579895019531,1.5877861976623535
1772740757799806500,2.134806396484375,0.8719291687011719,-0.354459285736084,1.239633560180664
1772740757818579000,2.153578857421875,0.08934307098388672,-0.6167752742767334,0.8084365129470825
1772740757837351400,2.172351318359375,-1.0432500839233398,-1.0127062797546387,0.46200618147850037
1772740757856110600,2.191110595703125,-2.02248477935791,-1.3046892881393433,0.1693902611732483
1772740757874896100,2.209896240234375,-2.622549533843994,-1.4035961627960205,-0.03079041838645935
1772740757893668600,2.228668701171875,-2.597207546234131,-1.3198730945587158,-0.0809008777141571
1772740757912441000,2.247441162109375,-2.0316638946533203,-1.0809868574142456,-0.028921812772750854
1772740757931213600,2.266213623046875,-1.512923240661621,-0.748982310295105,0.06556589901447296
1772740757949986000,2.284986083984375,-1.1938285827636719,-0.47194361686706543,0.11793018877506256
1772740757968758500,2.303758544921875,-1.0156373977661133,-0.35678791999816895,0.10964852571487427
1772740757987531000,2.322531005859375,-0.7209577560424805,-0.4688302278518677,0.050927311182022095
1772740758006303500,2.341303466796875,-0.35554981231689453,-0.6693179607391357,0.05886140465736389
1772740758025076000,2.360075927734375,-0.27278614044189453,-0.7158603668212891,0.04668448492884636
1772740758043848400,2.378848388671875,-0.18890953063964844,-0.5446738004684448,0.0003363974392414093
1772740758062621000,2.397620849609375,-0.18768596649169922,-0.44075238704681396,0.09503701329231262
1772740758081393200,2.41639306640625,-0.19549846649169922,-0.36807775497436523,0.1975403130054474
1772740758100165600,2.43516552734375,-0.06593990325927734,-0.21509027481079102,0.3066437244415283
1772740758118938000,2.453938232421875,0.4179420471191406,0.047208309173583984,0.4183380603790283
1772740758137710600,2.472710693359375,1.2408084869384766,0.29331469535827637,0.5940008163452148
1772740758156483000,2.491483154296875,1.8942804336547852,0.7162809371948242,0.712519109249115
1772740758175255600,2.510255615234375,2.3584346771240234,1.039646863937378,0.7458546161651611
1772740758194015000,2.529014892578125,3.1262292861938477,1.1618492603302002,0.6572373509407043
1772740758212800500,2.547800537109375,4.1779890060424805,0.918543815612793,0.5428566336631775
1772740758231573000,2.566572998046875,5.059089660644531,0.2061748504638672,0.6000794172286987
1772740758250345500,2.585345458984375,5.0771026611328125,-0.5492031574249268,0.750693142414093
1772740758269118000,2.604117919921875,4.263367652893066,-0.912513256072998,0.6912624835968018
1772740758287890200,2.62289013671875,2.7254104614257812,-1.0897414684295654,0.48140281438827515
1772740758306649600,2.641649658203125,1.0272102355957031,-1.3595876693725586,0.3657275438308716
1772740758325435100,2.66043505859375,-0.5963659286499023,-1.4622786045074463,0.2855730950832367
1772740758344207600,2.67920751953125,-1.7580289840698242,-1.1937402486801147,0.19469258189201355
1772740758362967000,2.697967041015625,-2.171355724334717,-0.849431037902832,0.0380023717880249
1772740758381752600,2.716752685546875,-1.8004541397094727,-0.6605889797210693,-0.10771697759628296
1772740758400525000,2.735525146484375,-0.6747112274169922,-0.7612118721008301,-0.13346560299396515
1772740758419284500,2.754284423828125,0.6918039321899414,-0.9634320735931396,-0.1423734724521637
1772740758438070000,2.773070068359375,1.9864234924316406,-1.2170889377593994,-0.1154058426618576
1772740758456842500,2.791842529296875,2.851774215698242,-1.5002167224884033,-0.1274382472038269
1772740758475615000,2.810614990234375,2.8456249237060547,-1.9482296705245972,-0.24334272742271423
1772740758494387500,2.829387451171875,1.8715620040893555,-2.664720296859741,-0.3481379449367523
1772740758513160000,2.848159912109375,0.5094594955444336,-3.15739107131958,-0.47695934772491455
1772740758531919000,2.866919189453125,-0.6823635101318359,-3.1965484619140625,-0.6169940233230591
1772740758550704600,2.88570458984375,-1.5451898574829102,-2.9844257831573486,-0.6798766851425171
1772740758569477000,2.90447705078125,-2.144176959991455,-2.7375247478485107,-0.7254836559295654
1772740758588249600,2.92324951171875,-2.483570098876953,-2.6057746410369873,-0.7133727073669434
1772740758607022000,2.94202197265625,-2.5440526008605957,-2.548415184020996,-0.6903039216995239
1772740758625794600,2.960794677734375,-2.4252820014953613,-2.458245277404785,-0.7262856960296631
1772740758644567000,2.979567138671875,-2.0373034477233887,-2.3662211894989014,-0.7379857897758484
1772740758663339500,2.998339599609375,-1.667816162109375,-2.3939318656921387,-0.6135255098342896
1772740758682112000,3.017112060546875,-1.4272494316101074,-2.34443736076355,-0.5480422973632812
1772740758700884500,3.035884521484375,-1.279378890991211,-2.225250482559204,-0.5549839735031128
1772740758719657000,3.054656982421875,-1.151993751525879,-2.1775834560394287,-0.513445258140564
1772740758738429200,3.07342919921875,-0.9005718231201172,-2.0906434059143066,-0.4719316363334656
1772740758757201700,3.09220166015625,-0.4399843215942383,-1.8954534530639648,-0.3483639359474182
1772740758775974100,3.11097412109375,0.17078304290771484,-1.744936227798462,-0.12016242742538452
1772740758794746600,3.12974658203125,0.5967378616333008,-1.6723277568817139,0.047583550214767456
1772740758813519000,3.14851904296875,0.6893606185913086,-1.1739528179168701,-0.08834367990493774
1772740758832291600,3.16729150390625,0.7944526672363281,-0.5684983730316162,-0.1873672902584076
1772740758851064000,3.18606396484375,1.2647857666015625,-0.22076129913330078,-0.057226330041885376
1772740758869836500,3.20483642578125,1.922189712524414,-0.12992238998413086,-0.011299073696136475
1772740758888609000,3.223609130859375,2.9694395065307617,-0.6574158668518066,0.15000700950622559
1772740758907381500,3.242381591796875,3.769162178039551,-1.558502197265625,0.3066784143447876
1772740758926141000,3.261140869140625,3.8216190338134766,-2.404050350189209,0.4688968062400818
1772740758944926200,3.27992626953125,2.5102548599243164,-2.2342238426208496,0.3223833739757538
1772740758963698700,3.29869873046875,0.7747945785522461,-1.2060437202453613,0.000039517879486083984
1772740758982458000,3.3174580078125,-0.5825624465942383,-0.49561238288879395,-0.04694145917892456
1772740759001243600,3.33624365234375,-1.2805242538452148,-0.14055776596069336,0.16168105602264404
1772740759020016000,3.35501611328125,-1.332514762878418,0.09583234786987305,0.43379729986190796
1772740759038788600,3.37378857421875,-0.901484489440918,0.20491266250610352,0.6354752779006958
1772740759057561000,3.39256103515625,-0.17753028869628906,0.28190159797668457,0.7292179465293884
1772740759076333600,3.41133349609375,0.6781339645385742,0.4855492115020752,0.6322803497314453
1772740759095106000,3.43010595703125,1.4630098342895508,0.5633759498596191,0.351615309715271
1772740759113878500,3.44887841796875,1.6655921936035156,0.2607147693634033,0.004815459251403809
1772740759132651000,3.467651123046875,1.086573600769043,-0.36489152908325195,-0.44440704584121704
1772740759151423500,3.486423583984375,0.09293937683105469,-1.1009910106658936,-0.8408209681510925
1772740759170196000,3.505196044921875,-0.7349491119384766,-1.7110270261764526,-1.0811915397644043
1772740759188968200,3.52396826171875,-1.1138429641723633,-1.9594435691833496,-1.1848053932189941
1772740759207740700,3.54274072265625,-1.004547119140625,-1.7661010026931763,-1.21918785572052
1772740759226513200,3.56151318359375,-0.6345405578613281,-1.2631096839904785,-1.232884407043457
1772740759245285600,3.58028564453125,-0.28842639923095703,-0.9938478469848633,-1.1863808631896973
1772740759264058000,3.59905810546875,-0.2967824935913086,-0.9868326187133789,-1.2664878368377686
1772740759282830600,3.61783056640625,-0.6362934112548828,-1.1425868272781372,-1.4134961366653442
1772740759301603000,3.63660302734375,-0.7646551132202148,-1.2600022554397583,-1.5101525783538818
1772740759320375600,3.65537548828125,-0.6093683242797852,-1.3630080223083496,-1.5232441425323486
1772740759339148000,3.67414794921875,-0.3367500305175781,-1.3889188766479492,-1.4713938236236572
1772740759357920500,3.69292041015625,-0.07943439483642578,-1.2532527446746826,-1.4725680351257324
1772740759376693000,3.71169287109375,-0.04635429382324219,-1.1554218530654907,-1.4895107746124268
1772740759395465500,3.730465576171875,0.10259532928466797,-0.9716906547546387,-1.558957815170288
1772740759414237700,3.74923779296875,0.4869384765625,-0.7331504821777344,-1.6450204849243164
1772740759433010200,3.76801025390625,0.920435905456543,-0.649256706237793,-1.643081784248352
1772740759451782700,3.78678271484375,1.271799087524414,-0.575509786605835,-1.5876028537750244
1772740759470555100,3.80555517578125,1.9392280578613281,-0.5626200437545776,-1.450713038444519
1772740759489314600,3.824314453125,3.296039581298828,-0.693743109703064,-1.4070091247558594
1772740759508100000,3.84310009765625,4.093811988830566,-0.8976731300354004,-1.598238229751587
1772740759526872600,3.86187255859375,4.148199081420898,-1.28389573097229,-1.8781874179840088
1772740759545645000,3.88064501953125,3.571993827819824,-1.7335737943649292,-2.075087547302246
1772740759564417500,3.89941748046875,2.743501663208008,-2.0863397121429443,-2.169041633605957
1772740759583190000,3.91818994140625,1.8131933212280273,-2.2456154823303223,-2.1668200492858887
1772740759601949200,3.93694921875,0.7858619689941406,-2.145123243331909,-2.233536958694458
1772740759620734700,3.955734619140625,-0.2611265182495117,-1.990780234336853,-2.3633055686950684
1772740759639507200,3.974507080078125,-1.0444726943969727,-1.740559458732605,-2.569542169570923
1772740759658279700,3.99327978515625,-1.5267877578735352,-1.527496099472046,-2.812572479248047
1772740759677052200,4.01205224609375,-1.6399493217468262,-1.3977391719818115,-3.1174824237823486
1772740759695824600,4.03082470703125,-1.351637840270996,-1.3272876739501953,-3.4683539867401123
1772740759714597000,4.04959716796875,-0.9082164764404297,-1.2596652507781982,-3.9105496406555176
1772740759733369600,4.06836962890625,-0.3327484130859375,-1.2189725637435913,-4.252501487731934
1772740759752142000,4.08714208984375,0.17744159698486328,-1.274627923965454,-4.402285099029541
1772740759770914600,4.10591455078125,0.7855262756347656,-1.2888474464416504,-4.438621520996094
1772740759789686800,4.124686767578125,1.7647514343261719,-1.3767842054367065,-4.3157501220703125
1772740759808459300,4.143459228515625,3.1849565505981445,-1.4682296514511108,-4.0961174964904785
1772740759827218700,4.16221875,4.393186569213867,-1.4780482053756714,-3.949376106262207
1772740759846004200,4.181004150390625,4.702718734741211,-1.7575485706329346,-3.729259490966797
1772740759864776700,4.199776611328125,3.9054126739501953,-2.036574125289917,-3.5490152835845947
1772740759883536100,4.2185361328125,2.4176807403564453,-2.1126420497894287,-3.2626149654388428
1772740759902321700,4.23732177734375,1.0334243774414062,-1.8821077346801758,-2.921578884124756
1772740759921094100,4.25609423828125,0.24611759185791016,-1.3798182010650635,-2.6294515132904053
1772740759939866600,4.27486669921875,-0.057320594787597656,-1.0723555088043213,-2.3248469829559326
1772740759958639000,4.29363916015625,-0.06744861602783203,-1.0367298126220703,-1.9794917106628418
1772740759977411300,4.312411376953125,-0.2516298294067383,-1.101831316947937,-1.7137718200683594
1772740759996183800,4.331183837890625,-0.6475124359130859,-1.2045764923095703,-1.44075608253479
1772740760014956300,4.349956298828125,-0.7427854537963867,-1.1125980615615845,-1.1605558395385742
1772740760033728800,4.368728759765625,-0.6974964141845703,-0.9335620403289795,-0.8497492074966431
1772740760052501200,4.387501220703125,-0.740997314453125,-0.6549330949783325,-0.6162958145141602
1772740760071273700,4.406273681640625,-0.8717784881591797,-0.15746235847473145,-0.5747876167297363
1772740760090046200,4.425046142578125,-0.667210578918457,0.33002376556396484,-0.40608906745910645
1772740760108805600,4.4438056640625,0.2718086242675781,0.7494198083877563,-0.03443098068237305
1772740760127591200,4.462591064453125,2.2308597564697266,0.9788182973861694,0.20634043216705322
1772740760146363600,4.48136376953125,3.461505889892578,0.5802459716796875,0.09399533271789551
1772740760165122800,4.500122802734375,2.714029312133789,-0.6485811471939087,0.15768468379974365
1772740760183908400,4.518908447265625,1.0313053131103516,-1.5462559461593628,0.1561359167098999
1772740760202680800,4.537680908203125,-0.3190784454345703,-1.5079083442687988,0.024889767169952393
1772740760221440300,4.556440185546875,-1.1867189407348633,-1.006219506263733,0.06399661302566528
1772740760240225800,4.575225830078125,-1.5183725357055664,-0.42852234840393066,0.19499027729034424
1772740760258998300,4.593998291015625,-1.3312644958496094,0.014306783676147461,0.3970854878425598
1772740760277770800,4.612770751953125,-0.7787160873413086,0.1998540163040161,0.5685023665428162
1772740760296543200,4.631543212890625,-0.33025169372558594,0.1242455244064331,0.6982526183128357
1772740760315315700,4.650315673828125,0.043709754943847656,0.12341177463531494,0.6729662418365479
1772740760334088000,4.669087890625,0.10444927215576172,0.1091083288192749,0.5533125400543213
1772740760352860400,4.6878603515625,-0.021854400634765625,0.1509392261505127,0.4125358462333679
1772740760371633000,4.7066328125,-0.05384540557861328,0.17218202352523804,0.26940399408340454
1772740760390405400,4.7254052734375,-0.14850330352783203,0.12829679250717163,0.12024646997451782
1772740760409177900,4.744177734375,-0.3330116271972656,0.2572339177131653,-0.10263115167617798
1772740760427950300,4.762950439453125,-0.5565776824951172,0.47526800632476807,-0.3163231313228607
1772740760446722800,4.781722900390625,-0.5746145248413086,0.7646801471710205,-0.5236800909042358
1772740760465495300,4.800495361328125,-0.6720256805419922,0.9770190715789795,-0.6567342281341553
1772740760484267800,4.819267822265625,-1.109156608581543,1.1060137748718262,-0.8271111845970154
1772740760503040000,4.8380400390625,-1.2466459274291992,0.9899301528930664,-0.8794708251953125
1772740760521812500,4.8568125,-0.9902048110961914,1.007349967956543,-0.9578845500946045
1772740760540585000,4.8755849609375,-0.7833223342895508,1.1341955661773682,-1.1353137493133545
1772740760559357400,4.894357421875,-0.7731666564941406,1.1933859586715698,-1.2457915544509888
1772740760578130000,4.9131298828125,-0.8173694610595703,1.241220235824585,-1.2652113437652588
1772740760596902400,4.93190234375,-0.7098121643066406,1.3199777603149414,-1.2542312145233154
1772740760615675000,4.9506748046875,-0.6335477828979492,1.3861032724380493,-1.2063262462615967
1772740760634447400,4.969447265625,-0.4744863510131836,1.4246599674224854,-1.1419178247451782
1772740760653219800,4.9882197265625,-0.33371925354003906,1.5889201164245605,-1.1123639345169067
1772740760671992000,5.006991943359375,-0.15737247467041016,1.6801745891571045,-1.1129391193389893
1772740760690764500,5.0257646484375,-0.042183876037597656,1.6075875759124756,-1.148869514465332
1772740760709537000,5.044537109375,0.05517768859863281,1.5226242542266846,-1.1880683898925781
1772740760728309500,5.0633095703125,0.11719036102294922,1.3411277532577515,-1.2273268699645996
1772740760747082000,5.08208203125,0.13524246215820312,1.1761491298675537,-1.2323760986328125
1772740760765854500,5.1008544921875,0.23253154754638672,1.1686363220214844,-1.224449634552002
1772740760784627000,5.119626953125,0.06750869750976562,1.4665027856826782,-1.4157944917678833
1772740760803399400,5.1383994140625,0.12298774719238281,1.824218511581421,-1.65306556224823
1772740760822171600,5.157171630859375,1.1128835678100586,1.9575343132019043,-1.4851254224777222
1772740760840931000,5.17593115234375,2.739583969116211,1.8395299911499023,-1.1741986274719238
1772740760859716600,5.194716552734375,4.193360328674316,1.4885995388031006,-0.8338688015937805
1772740760878489000,5.213489013671875,4.526403427124023,0.7602837681770325,-0.6940004825592041
1772740760897248500,5.23224853515625,3.5754833221435547,-0.2237134873867035,-0.6421970129013062
1772740760916034000,5.251033935546875,2.180861473083496,-0.7739092111587524,-0.5958966612815857
1772740760934806500,5.269806640625,0.7245702743530273,-0.4380555748939514,-0.7851604223251343
1772740760953565700,5.288565673828125,-0.6310434341430664,0.19475090503692627,-1.0125341415405273
1772740760972351200,5.307351318359375,-1.4297685623168945,0.6672126650810242,-1.1057875156402588
1772740760991123700,5.326123779296875,-1.3186120986938477,0.7961556911468506,-0.9694221019744873
1772740761009896200,5.344896240234375,-0.848912239074707,0.47378385066986084,-0.735694944858551
1772740761028668700,5.363668701171875,-0.34374141693115234,0.09078323841094971,-0.5209332704544067
1772740761047441200,5.382441162109375,0.1520090103149414,-0.1448378562927246,-0.36438316106796265
1772740761066213600,5.401213623046875,0.6020231246948242,-0.3654816150665283,-0.12114982306957245
1772740761084986000,5.419986083984375,0.7490463256835938,-0.6336520910263062,0.02788412570953369
1772740761103758600,5.438758544921875,0.5051174163818359,-0.9769282341003418,0.0581974983215332
1772740761122530800,5.45753076171875,-0.4688072204589844,-1.245434284210205,-0.013693004846572876
1772740761141303300,5.47630322265625,-1.6067123413085938,-1.0754951238632202,-0.17093993723392487
1772740761160075800,5.49507568359375,-2.4852027893066406,-0.6891226768493652,-0.36895501613616943
1772740761178848300,5.51384814453125,-2.9140748977661133,-0.2534991502761841,-0.562661349773407
1772740761197620700,5.532620849609375,-3.125739574432373,0.03079211711883545,-0.6611776351928711
1772740761216393200,5.551393310546875,-3.155738353729248,-0.011506319046020508,-0.5975527763366699
1772740761235165700,5.570165771484375,-3.041926383972168,0.035737037658691406,-0.6823894381523132
1772740761253938200,5.588938232421875,-2.9017748832702637,0.21518492698669434,-0.8149323463439941
1772740761272710400,5.60771044921875,-2.370588779449463,0.3886193037033081,-0.7483664155006409
1772740761291483000,5.62648291015625,-1.6150455474853516,0.5334383249282837,-0.695040762424469
1772740761310255400,5.64525537109375,-1.0425910949707031,0.5481140613555908,-0.6030868291854858
1772740761329027800,5.66402783203125,-0.8579282760620117,0.4870947599411011,-0.5639104843139648
1772740761347800300,5.68280029296875,-0.7024116516113281,0.5203611850738525,-0.5880099534988403
1772740761366572800,5.70157275390625,-0.49920177459716797,0.7149477005004883,-0.674645185470581
1772740761385345000,5.720344970703125,0.11058807373046875,0.7081493139266968,-0.5414748191833496
1772740761404117500,5.739117431640625,0.8468332290649414,0.7003954648971558,-0.42019322514533997
1772740761422890000,5.757889892578125,1.4441003799438477,0.9779302477836609,-0.488156259059906
1772740761441662500,5.776662353515625,1.5398101806640625,1.2047889232635498,-0.6589791774749756
1772740761460435000,5.79543505859375,1.8675756454467773,1.2839951515197754,-0.5481970906257629
1772740761479207400,5.81420751953125,2.890909194946289,1.3228119611740112,-0.32621240615844727
1772740761497980000,5.83297998046875,4.17570686340332,1.103818416595459,-0.03332096338272095
1772740761516739000,5.851739013671875,4.894529342651367,0.48719489574432373,0.21365505456924438
1772740761535524600,5.870524658203125,4.709425926208496,-0.3712146580219269,0.3095100522041321
1772740761554297000,5.889297119140625,3.267951011657715,-0.8805117607116699,0.10088080167770386
1772740761573056500,5.908056396484375,0.8569564819335938,-0.782524824142456,-0.17651307582855225
1772740761591842000,5.926842041015625,-1.5409746170043945,-0.13616974651813507,-0.3767848610877991
1772740761610614500,5.945614501953125,-3.1000242233276367,0.6818157434463501,-0.34784308075904846
1772740761629374000,5.9643740234375,-3.5144600868225098,1.396632432937622,-0.13360068202018738
1772740761648159200,5.9831591796875,-2.7322497367858887,1.9420363903045654,0.1698598861694336
1772740761666931700,6.001931640625,-1.5348968505859375,1.8803842067718506,0.49686384201049805
1772740761685691100,6.020691162109375,-0.3421926498413086,1.4737080335617065,0.6688143610954285
1772740761704476700,6.0394765625,0.7288122177124023,0.9861633777618408,0.5524427890777588
1772740761723249200,6.058249267578125,1.4416427612304688,0.2944526672363281,0.3251887559890747
1772740761742021600,6.077021728515625,1.0955371856689453,-0.520235538482666,-0.12746644020080566
1772740761760794000,6.095794189453125,-0.17805862426757812,-1.162551760673523,-0.5821053981781006
1772740761779566600,6.114566650390625,-1.7028179168701172,-1.35054349899292,-0.9639136791229248
1772740761798325800,6.13332568359375,-2.770052433013916,-1.1519410610198975,-1.186216115951538
1772740761817111300,6.152111328125,-3.1910533905029297,-0.6482551097869873,-1.2280969619750977
1772740761835883800,6.1708837890625,-2.8866138458251953,-0.044181108474731445,-1.0678138732910156
1772740761854656300,6.18965625,-2.2936177253723145,0.39910537004470825,-0.8250733017921448
1772740761873428700,6.2084287109375,-1.7466812133789062,0.6297791004180908,-0.6709635853767395
1772740761892201200,6.227201171875,-1.3521003723144531,0.7239674925804138,-0.5759344100952148
1772740761910973700,6.2459736328125,-0.9736528396606445,0.7682253122329712,-0.5359619855880737
1772740761929746000,6.264745849609375,-0.6402759552001953,0.815558135509491,-0.4970179796218872
1772740761948518400,6.283518310546875,-0.42377758026123047,0.884996771812439,-0.4187813997268677
1772740761967291000,6.302290771484375,-0.23089885711669922,1.1239709854125977,-0.4137548506259918
1772740761986063400,6.3210634765625,-0.1197214126586914,1.3719213008880615,-0.46916505694389343
1772740762004835800,6.3398359375,0.0644063949584961,1.5686571598052979,-0.47274109721183777
1772740762023608300,6.3586083984375,0.28688716888427734,1.5898412466049194,-0.3659863770008087
1772740762042380500,6.377380615234375,0.6496105194091797,1.6205757856369019,-0.19688403606414795
1772740762061153000,6.396153076171875,0.9383163452148438,1.6098318099975586,-0.015655189752578735
1772740762079925500,6.414925537109375,1.3299446105957031,1.6698551177978516,0.13098186254501343
1772740762098698000,6.433697998046875,1.5035772323608398,1.8448511362075806,0.072760671377182
1772740762117470500,6.452470458984375,1.1678056716918945,2.193429946899414,-0.19051870703697205
1772740762136243000,6.471242919921875,1.1744022369384766,2.274851083755493,-0.23948411643505096
1772740762155015200,6.49001513671875,1.7277469635009766,2.4949021339416504,-0.20078685879707336
1772740762173787600,6.50878759765625,2.8071470260620117,2.74342679977417,-0.2554272711277008
1772740762192547000,6.527547119140625,3.883185386657715,2.2825405597686768,-0.1829051822423935
1772740762211332600,6.54633251953125,4.273773193359375,1.407275676727295,-0.17761489748954773
1772740762230105000,6.56510498046875,3.9761438369750977,0.3582422137260437,-0.17830222845077515
1772740762248877600,6.583877685546875,3.221327781677246,-0.34693267941474915,-0.28293943405151367
1772740762267650000,6.602650146484375,1.898092269897461,-0.5810357332229614,-0.3895154893398285
1772740762286422300,6.62142236328125,0.24814510345458984,-0.41345757246017456,-0.5174804329872131
1772740762305181700,6.640181640625,-1.2102041244506836,-0.14364254474639893,-0.5312668681144714
1772740762323967200,6.65896728515625,-2.116931915283203,0.11799514293670654,-0.5326004028320312
1772740762342739700,6.67773974609375,-2.2616219520568848,0.5119391083717346,-0.5921202301979065
1772740762361512200,6.69651220703125,-1.6607990264892578,0.8395988941192627,-0.6494181752204895
1772740762380284700,6.71528466796875,-0.6163434982299805,0.6749483346939087,-0.4417376220226288
1772740762399057000,6.734056884765625,0.3799448013305664,0.10826385021209717,-0.160755917429924
1772740762417829400,6.752829345703125,1.1296606063842773,-0.5207676887512207,0.033723533153533936
1772740762436601900,6.771601806640625,1.4138555526733398,-1.0862269401550293,0.1025121808052063
1772740762455374300,6.790374267578125,0.8556766510009766,-1.6773681640625,0.12262153625488281
1772740762474133800,6.8091337890625,-0.5690755844116211,-1.8676615953445435,-0.08281654119491577
1772740762492919300,6.827919189453125,-1.8550844192504883,-1.6196564435958862,-0.2728397250175476
1772740762511691500,6.84669140625,-2.801102638244629,-1.2757155895233154,-0.4624626338481903
1772740762530451000,6.865450927734375,-3.406266212463379,-1.1549783945083618,-0.5380223393440247
1772740762549236500,6.884236572265625,-3.7953929901123047,-1.127679705619812,-0.6887292861938477
1772740762568009000,6.903009033203125,-3.8245487213134766,-1.0536558628082275,-0.8287820816040039
1772740762586781400,6.921781494140625,-3.4714255332946777,-0.8659807443618774,-0.9723843336105347
1772740762605554000,6.940553955078125,-3.1897788047790527,-0.7045230865478516,-1.0342060327529907
1772740762624326400,6.959326416015625,-2.940235137939453,-0.7505860328674316,-0.894064724445343
1772740762643098600,6.9780986328125,-2.827826976776123,-0.7754039764404297,-0.8437330722808838
1772740762661871000,6.99687109375,-2.7267465591430664,-0.6069066524505615,-1.0006792545318604
1772740762680643600,7.0156435546875,-2.293543815612793,-0.44821667671203613,-1.1048249006271362
1772740762699416000,7.034416015625,-1.4966726303100586,-0.24793636798858643,-1.0583056211471558
1772740762718188500,7.0531884765625,-0.6268281936645508,0.05684363842010498,-1.018460988998413
1772740762736960800,7.071960693359375,0.28575801849365234,0.19003558158874512,-0.9352622032165527
1772740762755720200,7.09072021484375,1.1249990463256836,0.05697798728942871,-0.8718335628509521
1772740762774505700,7.109505615234375,1.2920818328857422,0.1271989941596985,-0.9081841707229614
1772740762793278200,7.1282783203125,1.1759939193725586,0.14927935600280762,-0.6850716471672058
1772740762812050700,7.14705078125,1.7288532257080078,0.4561157524585724,-0.2671647071838379
1772740762830823200,7.1658232421875,2.7904672622680664,1.0004043579101562,-0.027002394199371338
1772740762849595400,7.184595458984375,3.997203826904297,1.2494467496871948,0.11202967166900635
1772740762868354800,7.203354736328125,4.584371566772461,0.992982029914856,0.18882536888122559
1772740762887140400,7.222140380859375,4.23536491394043,0.3903021216392517,0.19323289394378662
1772740762905912800,7.240912841796875,2.9143238067626953,0.025271713733673096,-0.005590558052062988
1772740762924672300,7.25967236328125,1.2322282791137695,0.03432464599609375,-0.2811243534088135
1772740762943457800,7.278457763671875,-0.09864521026611328,0.2817108631134033,-0.1961277723312378
1772740762962230000,7.29722998046875,-0.38243770599365234,0.931032657623291,0.3067762851715088
1772740762981002500,7.31600244140625,0.1541604995727539,1.7618741989135742,0.7862732410430908
1772740762999775000,7.33477490234375,0.4515104293823242,2.2309398651123047,1.1385126113891602
1772740763018547500,7.35354736328125,0.9564151763916016,2.492734909057617,1.2301691770553589
1772740763037320000,7.37231982421875,1.5774354934692383,2.427079677581787,1.163596749305725
1772740763056092400,7.391092529296875,1.8772497177124023,2.052074432373047,0.9595799446105957
1772740763074864600,7.40986474609375,1.438521385192871,1.4720126390457153,0.6021444797515869
1772740763093637000,7.42863720703125,0.4005546569824219,0.9402008056640625,0.0053321123123168945
1772740763112409600,7.44740966796875,-0.7850055694580078,0.40113717317581177,-0.38958001136779785
1772740763131182000,7.46618212890625,-1.8032875061035156,0.0641743391752243,-0.7236343026161194
1772740763149941500,7.48494140625,-2.5660691261291504,-0.0077644698321819305,-0.9220167398452759
1772740763168726800,7.503726806640625,-2.7074670791625977,0.28261664509773254,-1.1522564888000488
1772740763187499300,7.522499267578125,-2.449648857116699,0.4805651903152466,-1.16072416305542
1772740763206271700,7.541271728515625,-2.0385684967041016,0.48646509647369385,-1.091753363609314
1772740763225044200,7.560044189453125,-1.4727840423583984,0.47247424721717834,-1.0717189311981201
1772740763243816700,7.578816650390625,-1.0212907791137695,0.29686710238456726,-1.0279148817062378
1772740763262589200,7.597589111328125,-0.7836065292358398,-0.04686839133501053,-0.8422496318817139
1772740763281361400,7.616361328125,-0.7423810958862305,-0.3323155343532562,-0.5810760259628296
1772740763300134000,7.6351337890625,-0.6752347946166992,-0.3024481534957886,-0.2696411907672882
1772740763318906400,7.65390625,-0.7776298522949219,0.09568247199058533,-0.17121636867523193
1772740763337678800,7.672678955078125,-1.1018657684326172,0.4193766713142395,-0.0709255039691925
1772740763356451300,7.691451416015625,-1.1603889465332031,0.5668528079986572,0.19193890690803528
1772740763375223600,7.7102236328125,-0.5457553863525391,0.85821533203125,0.4614796042442322
1772740763393996000,7.72899609375,0.4674081802368164,1.1502130031585693,0.709396481513977
1772740763412768500,7.7477685546875,1.3765974044799805,1.6536206007003784,0.768452525138855
1772740763431541000,7.766541015625,1.986419677734375,2.097369909286499,0.6347701549530029
1772740763450313500,7.7853134765625,2.604414939880371,2.2141823768615723,0.5495086312294006
1772740763469086000,7.8040859375,3.59078311920166,1.9520289897918701,0.5817518830299377
1772740763487845000,7.82284521484375,5.024675369262695,1.57619047164917,0.5165325999259949
1772740763506630700,7.841630615234375,5.792087554931641,1.0251222848892212,0.4059435725212097
1772740763525403100,7.860403076171875,4.633548736572266,0.23028123378753662,0.19671446084976196
1772740763544162600,7.87916259765625,2.276247978210449,-0.09358806163072586,-0.10326230525970459
1772740763562948000,7.897947998046875,0.34621238708496094,0.10100182890892029,-0.33183279633522034
1772740763581720600,7.916720458984375,-0.7574081420898438,0.45506787300109863,-0.3924851417541504
1772740763600479700,7.935479736328125,-1.2551822662353516,0.6828113794326782,-0.24797828495502472
1772740763619265300,7.954265380859375,-1.3249702453613281,0.686637282371521,-0.04961031675338745
1772740763638037800,7.973037841796875,-0.9024591445922852,0.5584887862205505,0.19023361802101135
1772740763656810200,7.991810302734375,0.002410888671875,0.37490999698638916,0.41894757747650146
1772740763675582700,8.010582763671875,1.227828025817871,0.14166224002838135,0.6026673316955566
1772740763694355000,8.02935498046875,2.330451011657715,-0.2622978687286377,0.7427685856819153
1772740763713127400,8.04812744140625,2.783766746520996,-0.9783037900924683,0.7994676828384399
1772740763731900000,8.06689990234375,2.6295976638793945,-1.7923191785812378,0.7661798000335693
1772740763750672400,8.08567236328125,2.3905820846557617,-2.525571346282959,0.8137409687042236
1772740763769444900,8.10444482421875,1.666290283203125,-2.849435329437256,0.7036826610565186
1772740763788217300,8.12321728515625,0.5877542495727539,-2.789950132369995,0.4555100202560425
1772740763806989600,8.141989501953125,-0.7395496368408203,-2.7448055744171143,0.18574923276901245
1772740763825749000,8.1607490234375,-1.869490623474121,-2.8166282176971436,0.06981772184371948
1772740763844534500,8.179534423828125,-2.6181931495666504,-2.7743163108825684,-0.033933937549591064
1772740763863307000,8.19830712890625,-3.059077262878418,-2.70810604095459,-0.10318654775619507
1772740763882079200,8.217079345703125,-3.2583065032958984,-2.6129860877990723,-0.09841614961624146
1772740763900851700,8.235851806640625,-3.048734664916992,-2.4291739463806152,0.010770529508590698
1772740763919624200,8.254624267578125,-2.673961639404297,-2.1899518966674805,0.11956512928009033
1772740763938396700,8.273396728515625,-2.408425807952881,-1.9941941499710083,0.2143903523683548
1772740763957169200,8.292169189453125,-2.2198963165283203,-1.8933360576629639,0.17216846346855164
1772740763975941600,8.310941650390625,-1.8987321853637695,-1.9272921085357666,0.23994535207748413
1772740763994714000,8.329714111328125,-1.872410774230957,-1.9095020294189453,0.23423494398593903
1772740764013486300,8.348486328125,-2.1068716049194336,-1.6568586826324463,0.15153874456882477
1772740764032258800,8.3672587890625,-2.1297225952148438,-1.2538105249404907,0.07528075575828552
1772740764051031300,8.38603125,-1.728902816772461,-0.9726195335388184,0.13714148104190826
1772740764069803800,8.4048037109375,-1.1171579360961914,-0.9617234468460083,0.29419422149658203
1772740764088576000,8.423575927734374,-0.483062744140625,-0.9793000221252441,0.31823599338531494
1772740764107348500,8.442348388671874,-0.1158905029296875,-0.9235396385192871,0.1573559045791626
1772740764126121000,8.461120849609374,0.24805927276611328,-0.917708158493042,0.1602226197719574
1772740764144893400,8.4798935546875,0.5825710296630859,-0.6611044406890869,0.2573307752609253
1772740764163666000,8.498666015625,1.233189582824707,-0.2989773750305176,0.29705482721328735
1772740764182438400,8.5174384765625,2.352179527282715,-0.3268500566482544,0.408328652381897
1772740764201210600,8.536210693359376,3.547321319580078,-0.8160374164581299,0.46706926822662354
1772740764219983000,8.554983154296876,4.1638031005859375,-1.4657164812088013,0.32004785537719727
1772740764238755600,8.573755615234376,3.6657371520996094,-2.2199416160583496,0.1329108476638794
1772740764257528000,8.592528076171876,2.446078300476074,-2.4375407695770264,-0.06685197353363037
1772740764276287500,8.61128759765625,1.3845558166503906,-1.8902016878128052,-0.21327513456344604
1772740764295073000,8.630072998046876,0.9162454605102539,-1.0721309185028076,-0.23935705423355103
1772740764313845200,8.64884521484375,0.7939910888671875,-0.583299994468689,-0.1604713797569275
1772740764332617700,8.66761767578125,0.895294189453125,-0.6413528323173523,-0.0023508071899414062
1772740764351390200,8.68639013671875,1.1809654235839844,-1.0009102821350098,0.0919945240020752
1772740764370162700,8.70516259765625,1.3311100006103516,-1.534416913986206,0.0711979866027832
1772740764388935000,8.723934814453125,1.2177391052246094,-2.125002861022949,-0.00832068920135498
1772740764407707400,8.742707275390625,0.8014936447143555,-2.5920591354370117,-0.10470914840698242
1772740764426479900,8.76147998046875,0.36318397521972656,-2.7538909912109375,-0.20046323537826538
1772740764445252400,8.78025244140625,-0.06136512756347656,-2.5752148628234863,-0.3384403586387634
1772740764464024800,8.79902490234375,-0.46234130859375,-2.4370932579040527,-0.38607102632522583
1772740764482797000,8.817797119140625,-0.6332578659057617,-2.489020347595215,-0.3350721001625061
1772740764501569500,8.836569580078125,-0.5479669570922852,-2.3796582221984863,-0.3283845782279968
1772740764520342000,8.855342041015625,-0.23890972137451172,-2.025839328765869,-0.37355583906173706
1772740764539114500,8.874114501953125,-0.12417030334472656,-1.7309651374816895,-0.32569366693496704
1772740764557887000,8.892886962890625,-0.4848136901855469,-1.8210997581481934,-0.2648196220397949
1772740764576659500,8.911659423828125,-0.6765842437744141,-1.9613962173461914,-0.3033890128135681
1772740764595431700,8.930431640625,-0.6569223403930664,-1.734217882156372,-0.4676356315612793
1772740764614204200,8.9492041015625,-0.5401859283447266,-1.191976547241211,-0.5935720205307007
1772740764632976600,8.9679765625,-0.39469432830810547,-0.7597848176956177,-0.6241145133972168
1772740764651749000,8.9867490234375,-0.20973587036132812,-0.7334694862365723,-0.550279974937439
1772740764670521600,9.005521484375,-0.0905771255493164,-0.7654944658279419,-0.4817962050437927
1772740764689293800,9.0242939453125,-0.0977163314819336,-0.7002483606338501,-0.47590380907058716
1772740764708066300,9.04306640625,0.06105613708496094,-0.634711742401123,-0.4307021200656891
1772740764726838800,9.0618388671875,0.349822998046875,-0.4760533273220062,-0.390483021736145
1772740764745611300,9.080611328125,0.6361103057861328,-0.30237364768981934,-0.4011467695236206
1772740764764383700,9.0993837890625,0.7350807189941406,-0.29521000385284424,-0.39700108766555786
1772740764783156000,9.118156005859374,0.6938018798828125,-0.44143232703208923,-0.2723435163497925
1772740764801928400,9.136928466796874,0.5470199584960938,-0.42481154203414917,-0.363381952047348
1772740764820701000,9.155700927734374,0.11889266967773438,-0.26891183853149414,-0.5205617547035217
1772740764839473400,9.174473388671874,0.044562339782714844,-0.2050318717956543,-0.3605554401874542
1772740764858246000,9.193245849609376,0.6507806777954102,-0.1499929428100586,0.10902556777000427
1772740764877018000,9.21201806640625,1.5076398849487305,-0.06649529933929443,0.37489041686058044
1772740764895790600,9.23079052734375,1.9116792678833008,-0.18446671962738037,0.4448641538619995
1772740764914563000,9.24956298828125,1.4561433792114258,-0.5337876081466675,0.3845677673816681
1772740764933335600,9.26833544921875,0.6903114318847656,-0.7776232957839966,0.24843260645866394
1772740764952107800,9.287107666015626,0.3224153518676758,-0.7948925495147705,0.20371608436107635
1772740764970880300,9.30588037109375,0.2808218002319336,-0.8721667528152466,0.25247612595558167
1772740764989652700,9.32465283203125,0.13461685180664062,-0.9432648420333862,0.3340299427509308
1772740765008425200,9.34342529296875,-0.39965248107910156,-1.0686055421829224,0.43907004594802856
1772740765027197700,9.36219775390625,-0.8751821517944336,-0.9479864835739136,0.4080323874950409
1772740765045970000,9.380969970703125,-1.1339960098266602,-0.7065426111221313,0.26357027888298035
1772740765064742400,9.399742431640625,-1.0615291595458984,-0.5047248601913452,0.12791390717029572
1772740765083515000,9.418514892578125,-0.8672504425048828,-0.33427441120147705,0.05945248529314995
1772740765102287400,9.437287353515625,-0.5389556884765625,-0.1631793975830078,0.07572746276855469
1772740765121059800,9.456059814453125,-0.013652801513671875,-0.3131222724914551,0.31332242488861084
1772740765139832000,9.47483203125,0.7823572158813477,-0.5323402881622314,0.4663126468658447
1772740765158604500,9.4936044921875,1.0506906509399414,-0.792049765586853,0.3936389684677124
1772740765177377000,9.512376953125,0.5482931137084961,-1.003888487815857,0.2517715096473694
1772740765196149500,9.5311494140625,-0.42157649993896484,-0.8228141069412231,-0.009512308984994888
1772740765214922000,9.549921875,-1.2711896896362305,-0.3362436294555664,-0.22617413103580475
1772740765233694200,9.568694091796875,-1.659642219543457,0.006090641021728516,-0.259120374917984
1772740765252466700,9.587466796875,-1.6151175498962402,0.35275793075561523,-0.3550567626953125
1772740765271239200,9.6062392578125,-1.1560001373291016,0.42556047439575195,-0.2992815673351288
1772740765290011600,9.62501171875,-0.5419759750366211,0.2757232189178467,-0.12595322728157043
1772740765308783900,9.643783935546875,-0.32438087463378906,0.13795971870422363,-0.05137772858142853
1772740765327556400,9.662556396484375,-0.394866943359375,0.0966181755065918,-0.23930582404136658
1772740765346328800,9.681328857421875,-0.3714618682861328,-0.1078023910522461,-0.2597068250179291
1772740765365101300,9.700101318359375,-0.16593647003173828,-0.15189170837402344,-0.2180446833372116
1772740765383873800,9.718873779296874,-0.18559741973876953,-0.154449462890625,-0.18774861097335815
1772740765402633000,9.737633056640625,-1.251967430114746,-0.4478585720062256,-0.23819425702095032
1772740765421418500,9.75641845703125,-2.535752773284912,-0.044130563735961914,-0.8857280611991882
1772740765440191000,9.77519091796875,-1.3277502059936523,0.3411896228790283,-0.8696776628494263
1772740765458950400,9.793950439453125,0.3328227996826172,0.30922913551330566,-0.5524218082427979
1772740765477736000,9.81273583984375,0.6197538375854492,-0.10912752151489258,-0.15819069743156433
