time,seconds_elapsed,z,y,x
1772740706757258000,0.304258056640625,-7.841856002807617,-4.233114719390869,0.38430705666542053
1772740706776030500,0.323030517578125,-7.072489261627197,-4.150539875030518,0.666095495223999
1772740706794803000,0.341802978515625,-6.8984456062316895,-3.9271469116210938,0.7282736301422119
1772740706813575700,0.36057568359375,-7.568332195281982,-4.386697769165039,0.5981264114379883
1772740706832348200,0.37934814453125,-7.491467475891113,-3.8404781818389893,-0.665493905544281
1772740706851120600,0.39812060546875,-5.375551700592041,-4.069839000701904,-2.1604628562927246
1772740706869893400,0.416893310546875,-3.616532802581787,-0.6052250862121582,-3.349041223526001
1772740706888652800,0.43565283203125,4.304646015167236,1.9929556846618652,-1.7548420429229736
1772740706907438300,0.454438232421875,15.685029983520508,2.90853214263916,1.22037935256958
1772740706926211000,0.473211181640625,24.448932647705078,-0.3975954055786133,3.129831552505493
1772740706944970500,0.491970458984375,26.843639373779297,-5.192080974578857,2.9808437824249268
1772740706963756000,0.510756103515625,24.13532257080078,-7.076211452484131,0.6171537637710571
1772740706982528800,0.52952880859375,19.02140998840332,-6.7796101570129395,-0.9603853225708008
1772740707001288200,0.5482880859375,13.229516983032227,-4.670712471008301,-1.3495756387710571
1772740707020073700,0.56707373046875,8.24068832397461,-2.8881027698516846,-1.0802435874938965
1772740707038846500,0.585846435546875,5.1011128425598145,-2.0179102420806885,-0.7597617506980896
1772740707057606000,0.60460595703125,3.1987619400024414,-2.177769899368286,-0.34467804431915283
1772740707076391400,0.623391357421875,1.8976497650146484,-2.6466052532196045,0.1717354655265808
1772740707095164200,0.6421640625,0.5627412796020508,-3.1395108699798584,0.7263371348381042
1772740707113923600,0.660923583984375,-0.9857831001281738,-3.6491587162017822,0.8960061073303223
1772740707132709000,0.679709228515625,-2.9559550285339355,-4.228097915649414,0.9187213182449341
1772740707151481900,0.69848193359375,-5.10746955871582,-4.569472789764404,0.8172587156295776
1772740707170241300,0.7172412109375,-6.209095478057861,-4.782393932342529,0.7210198640823364
1772740707189027000,0.736027099609375,-6.418397426605225,-5.037581920623779,0.7812692523002625
1772740707207799600,0.754799560546875,-6.803079128265381,-5.702548027038574,0.8255527019500732
1772740707226572000,0.773572021484375,-6.996060371398926,-6.061601638793945,0.9026810526847839
1772740707245344800,0.7923447265625,-7.156505584716797,-6.37640380859375,1.0706381797790527
1772740707264117200,0.8111171875,-7.208991050720215,-6.624950885772705,1.2639076709747314
1772740707282890000,0.829889892578125,-6.891669750213623,-6.639069080352783,1.3814408779144287
1772740707301662500,0.848662353515625,-5.6382293701171875,-6.314159393310547,1.3453495502471924
1772740707320435000,0.86743505859375,-3.907589912414551,-5.334356307983398,0.9608020186424255
1772740707339194600,0.886194580078125,-2.587306499481201,-3.6296370029449463,0.3768783509731293
1772740707357980200,0.904980224609375,-0.8967056274414062,-1.535489559173584,-0.4373077154159546
1772740707376752600,0.923752685546875,1.3206243515014648,-0.05996990203857422,-0.7722060680389404
1772740707395512300,0.94251220703125,5.057375431060791,0.9903206825256348,-0.1597287654876709
1772740707414297900,0.9612978515625,10.706098556518555,2.373241424560547,0.2905144691467285
1772740707433070300,0.9800703125,13.946478843688965,0.36330509185791016,1.041744589805603
1772740707451830000,0.998830078125,12.955015182495117,-2.3946425914764404,0.792293131351471
1772740707470615600,1.017615478515625,12.251541137695312,-4.406399726867676,0.28150323033332825
1772740707489388000,1.036387939453125,11.391470909118652,-5.506503582000732,0.13060612976551056
1772740707508160800,1.055160888671875,10.369074821472168,-5.170591354370117,0.23380351066589355
1772740707526933200,1.073933349609375,7.994448661804199,-4.528073310852051,0.3956139385700226
1772740707545706000,1.0927060546875,4.385009765625,-4.4060516357421875,0.5247006416320801
1772740707564465400,1.11146533203125,2.0678281784057617,-4.417503833770752,0.8312145471572876
1772740707583251000,1.1302509765625,1.3723878860473633,-3.9481959342956543,1.207934856414795
1772740707602023700,1.149023681640625,0.7381696701049805,-3.301316261291504,1.3163666725158691
1772740707620783000,1.167783203125,-0.7376999855041504,-3.1104321479797363,0.9423815011978149
1772740707639569000,1.18656884765625,-2.4360246658325195,-3.0908918380737305,0.29279160499572754
1772740707658341400,1.20534130859375,-3.9159369468688965,-3.537285804748535,-0.1396782547235489
1772740707677100800,1.224100830078125,-4.763031005859375,-4.102715492248535,-0.25672584772109985
1772740707695886600,1.242886474609375,-5.300565719604492,-4.6345744132995605,-0.25020819902420044
1772740707714659000,1.2616591796875,-5.821102619171143,-4.814091205596924,-0.2661479711532593
1772740707733418500,1.28041845703125,-6.362733840942383,-5.010183811187744,-0.15646441280841827
1772740707752204300,1.299204345703125,-6.473719596862793,-5.200621128082275,0.007955431938171387
1772740707770976800,1.317976806640625,-6.04103946685791,-5.354640007019043,0.34568917751312256
1772740707789736400,1.336736328125,-4.5287652015686035,-5.08062744140625,0.6027207374572754
1772740707808522000,1.35552197265625,-2.3104028701782227,-4.897817611694336,0.5340554714202881
1772740707827294500,1.37429443359375,-1.0730276107788086,-3.8852226734161377,-0.621849775314331
1772740707846054100,1.39305419921875,0.12623357772827148,-1.3977675437927246,-3.014375686645508
1772740707864839700,1.411839599609375,2.0339322090148926,1.5067505836486816,-5.042734622955322
1772740707883612400,1.4306123046875,4.6492767333984375,1.258786678314209,-3.867476224899292
1772740707902371800,1.449371826171875,9.200729370117188,0.41255617141723633,-1.5003445148468018
1772740707921157400,1.468157470703125,14.146947860717773,-0.017033100128173828,0.683338463306427
1772740707939930000,1.48693017578125,16.666669845581055,-0.8210616111755371,1.7245001792907715
1772740707958689500,1.505689453125,13.93459701538086,-3.5593302249908447,1.3543182611465454
1772740707977475000,1.52447509765625,8.389787673950195,-5.086158275604248,-0.2506738305091858
1772740707996247800,1.543247802734375,4.186007976531982,-5.162115573883057,-1.527083396911621
1772740708015007200,1.56200732421875,2.031337261199951,-5.459571838378906,-1.2173157930374146
1772740708033793000,1.58079296875,2.465203285217285,-5.680352687835693,0.10960432887077332
1772740708052565500,1.5995654296875,2.852871894836426,-5.236437797546387,1.0675710439682007
1772740708071325000,1.618324951171875,2.1118173599243164,-5.326529502868652,1.87371826171875
1772740708090110700,1.63711083984375,1.1420421600341797,-5.211989402770996,2.186039924621582
1772740708108883200,1.65588330078125,-0.27928829193115234,-4.6431403160095215,1.9794859886169434
1772740708127643000,1.674642822265625,-1.9908523559570312,-4.347087860107422,1.3472809791564941
1772740708146428400,1.693428466796875,-3.524449348449707,-4.405587673187256,0.8045747876167297
1772740708165201000,1.712200927734375,-4.673173904418945,-4.814638137817383,0.473829060792923
1772740708183960600,1.730960693359375,-5.212836265563965,-5.452516078948975,0.3712965250015259
1772740708202746000,1.74974609375,-5.372769355773926,-5.744774341583252,0.342349112033844
1772740708221518800,1.768518798828125,-5.276573181152344,-5.8833327293396,0.35544079542160034
1772740708240291300,1.787291259765625,-5.293105125427246,-5.987782955169678,0.2695178985595703
1772740708259063800,1.806063720703125,-5.73585844039917,-5.879483699798584,-0.0037869811058044434
1772740708277836500,1.82483642578125,-5.466117858886719,-5.184426307678223,-0.4408198595046997
1772740708296596000,1.843595947265625,-4.5152587890625,-3.9955432415008545,-1.2064969539642334
1772740708315381800,1.8623818359375,-2.8199639320373535,-2.1435275077819824,-2.278658866882324
1772740708334154200,1.881154296875,-1.1591901779174805,0.08126497268676758,-3.4842026233673096
1772740708352913700,1.89991357421875,-1.3398056030273438,1.6031608581542969,-3.187593698501587
1772740708371699500,1.918699462890625,0.2522578239440918,3.7081093788146973,-1.6320137977600098
1772740708390472000,1.937471923828125,6.288665294647217,4.020820617675781,1.6175005435943604
1772740708409231600,1.956231689453125,14.089099884033203,1.5595946311950684,4.119733810424805
1772740708428017200,1.97501708984375,18.409961700439453,-2.6411709785461426,4.869956970214844
1772740708446790000,1.993789794921875,17.000499725341797,-6.5352373123168945,4.220203399658203
1772740708465549300,2.01254931640625,12.394244194030762,-6.330074310302734,2.2996931076049805
1772740708484334800,2.0313349609375,8.367143630981445,-4.865567207336426,0.988296389579773
1772740708503107600,2.050107666015625,6.610293388366699,-4.792614936828613,1.447787880897522
1772740708521867000,2.068866943359375,5.356698036193848,-4.445072650909424,1.9039369821548462
1772740708540652800,2.08765283203125,4.559178352355957,-3.641139268875122,1.9264423847198486
1772740708559425300,2.10642529296875,3.713712692260742,-3.579576253890991,1.927721619606018
1772740708578184700,2.125184814453125,0.785527229309082,-3.241290330886841,1.951366901397705
1772740708596970500,2.143970458984375,-2.521944046020508,-2.5535693168640137,1.4830670356750488
1772740708615743000,2.162742919921875,-4.769506931304932,-2.5404980182647705,0.9649001955986023
1772740708634502700,2.181502685546875,-5.645089149475098,-3.2602148056030273,0.540963888168335
1772740708653288200,2.2002880859375,-6.057541370391846,-4.315106391906738,0.3150053024291992
1772740708672061000,2.21906103515625,-6.443725109100342,-4.949337005615234,0.05211132764816284
1772740708690833400,2.23783349609375,-6.614126682281494,-5.0727949142456055,-0.17949455976486206
1772740708709606000,2.25660595703125,-6.477090835571289,-4.8072919845581055,-0.4730927050113678
1772740708728378600,2.275378662109375,-6.188272476196289,-4.7247114181518555,-0.7391202449798584
1772740708747151000,2.294151123046875,-5.749411582946777,-4.466710090637207,-1.2298517227172852
1772740708765923800,2.312923828125,-4.920589447021484,-4.16508674621582,-1.9179730415344238
1772740708784696300,2.3316962890625,-3.190934181213379,-3.9704091548919678,-2.6904377937316895
1772740708803455700,2.350455810546875,-1.557262897491455,-3.9069623947143555,-3.3375868797302246
1772740708822241500,2.369241455078125,-0.0415806770324707,-2.596081256866455,-4.66878080368042
1772740708841014000,2.388013916015625,1.8930225372314453,-0.02787923812866211,-5.279116630554199
1772740708859773700,2.406773681640625,4.86735200881958,1.901519775390625,-4.095222473144531
1772740708878559200,2.425559326171875,9.223098754882812,2.8189749717712402,-2.1400065422058105
1772740708897332000,2.44433203125,14.828324317932129,2.5295157432556152,-0.15629267692565918
1772740708916091400,2.46309130859375,18.78150177001953,-0.36081838607788086,1.3834764957427979
1772740708934877000,2.481876953125,16.648733139038086,-4.314253807067871,1.296535611152649
1772740708953649700,2.500649658203125,10.312179565429688,-5.274068832397461,-0.36356842517852783
1772740708972409000,2.5194091796875,5.005202293395996,-4.29652214050293,-1.8152008056640625
1772740708991195000,2.53819482421875,2.6760454177856445,-3.4396274089813232,-1.582666039466858
1772740709009967400,2.55696728515625,2.7976808547973633,-3.071103572845459,-0.26987218856811523
1772740709028740000,2.575739990234375,3.6016836166381836,-3.0308570861816406,0.6923867464065552
1772740709047512600,2.5945126953125,3.770237922668457,-3.268127679824829,1.115143060684204
1772740709066285000,2.61328515625,3.037107467651367,-3.847378730773926,1.180922269821167
1772740709085044700,2.632044677734375,1.8558530807495117,-4.1785664558410645,1.1312626600265503
1772740709103830300,2.650830322265625,0.3331642150878906,-4.351500988006592,1.0314488410949707
1772740709122603000,2.66960302734375,-1.4258403778076172,-4.566254615783691,0.9534836411476135
1772740709141362400,2.688362548828125,-3.1930441856384277,-4.878547191619873,0.9510959386825562
1772740709160148200,2.707148193359375,-4.636805534362793,-5.265533924102783,1.0438567399978638
1772740709178920700,2.725920654296875,-5.568416118621826,-5.70485258102417,1.1849339008331299
1772740709197680000,2.74468017578125,-5.950030326843262,-6.100204944610596,1.3050873279571533
1772740709216466000,2.7634658203125,-6.0164031982421875,-6.193166255950928,1.287392258644104
1772740709235238400,2.78223828125,-5.943973064422607,-6.07609224319458,0.9814127087593079
1772740709254011100,2.80101123046875,-5.77067756652832,-5.91474723815918,0.5888229012489319
1772740709272783600,2.81978369140625,-5.362839698791504,-5.303869247436523,0.08591949939727783
1772740709291556400,2.838556396484375,-4.258455276489258,-4.281739234924316,-0.5957462787628174
1772740709310315800,2.857315673828125,-3.070525884628296,-3.3580245971679688,-1.1358673572540283
1772740709329101600,2.8761015625,-2.347172260284424,-1.3861408233642578,-1.553680658340454
1772740709347874000,2.8948740234375,-0.42342042922973633,1.1679706573486328,-1.5017317533493042
1772740709366633500,2.913633544921875,3.7079734802246094,3.476302146911621,-0.5726096630096436
1772740709385419300,2.932419189453125,10.080414772033691,4.1934285163879395,1.2266077995300293
1772740709404191700,2.951191650390625,16.08547019958496,1.5174674987792969,3.0001823902130127
1772740709422951400,2.969951416015625,17.785511016845703,-2.3894548416137695,2.9396615028381348
1772740709441737000,2.988737060546875,15.555225372314453,-5.424206256866455,2.879530191421509
1772740709460509700,3.007509765625,10.588680267333984,-6.124012470245361,1.8983551263809204
1772740709479269000,3.02626904296875,5.670351982116699,-5.796380996704102,1.487210750579834
1772740709498055000,3.045054931640625,2.3150129318237305,-4.904462814331055,1.556362509727478
1772740709516827400,3.063827392578125,0.39337921142578125,-3.387892246246338,1.9222766160964966
1772740709535586800,3.0825869140625,-0.44560813903808594,-1.7225394248962402,2.1834044456481934
1772740709554372600,3.10137255859375,-0.8240547180175781,-0.2944917678833008,1.9257404804229736
1772740709573145000,3.12014501953125,-0.5274686813354492,0.7001395225524902,1.341809630393982
1772740709591917800,3.138917724609375,-0.035350799560546875,-0.11576080322265625,0.7350841760635376
1772740709610690300,3.157690185546875,-0.43551158905029297,-1.9170293807983398,0.15419065952301025
1772740709629463000,3.176463134765625,-1.416752815246582,-3.8729496002197266,-0.20377850532531738
1772740709648222500,3.195222412109375,-2.8336944580078125,-5.411624908447266,-0.47264009714126587
1772740709667008300,3.21400830078125,-4.321622848510742,-6.149354457855225,-0.6958038806915283
1772740709685780700,3.23278076171875,-5.219729423522949,-6.4551472663879395,-0.754069447517395
1772740709704553500,3.251553466796875,-5.467419624328613,-6.489688396453857,-0.6043537855148315
1772740709723326000,3.270325927734375,-4.276617050170898,-6.574892044067383,-0.20008039474487305
1772740709742098400,3.289098388671875,-2.774674415588379,-6.5449700355529785,0.2095354199409485
1772740709760858000,3.307858154296875,-1.1718125343322754,-6.950386047363281,0.3623040020465851
1772740709779643600,3.3266435546875,-0.42963504791259766,-6.360671043395996,-0.21720921993255615
1772740709798416400,3.34541650390625,-0.6553130149841309,-4.122145652770996,-1.6590120792388916
1772740709817175800,3.36417578125,-1.320882797241211,-0.4818449020385742,-3.3925373554229736
1772740709835961600,3.382961669921875,-0.1812276840209961,1.8825926780700684,-4.010467529296875
1772740709854734000,3.401734130859375,2.7367238998413086,1.5302491188049316,-2.968263626098633
1772740709873493500,3.420493408203125,6.793942928314209,-0.18441534042358398,-1.1666629314422607
1772740709892279300,3.439279296875,12.040603637695312,-1.6375298500061035,0.21189738810062408
1772740709911051800,3.4580517578125,13.802990913391113,-3.647292375564575,0.36518049240112305
1772740709929811500,3.4768115234375,10.130434036254883,-4.843054294586182,-0.830767035484314
1772740709948597000,3.495596923828125,6.179651260375977,-5.481986045837402,-1.5959815979003906
1772740709967369700,3.51436962890625,4.359169006347656,-5.564476490020752,-1.0471282005310059
1772740709986129200,3.533129150390625,4.812169075012207,-5.271281719207764,0.5169379115104675
1772740710004915000,3.5519150390625,5.337942123413086,-4.173900604248047,1.7842259407043457
1772740710023687400,3.5706875,5.22489070892334,-4.032271385192871,2.6097235679626465
1772740710042447000,3.589447021484375,3.9276227951049805,-3.97731876373291,2.665931463241577
1772740710061232600,3.608232666015625,2.4662208557128906,-3.67585825920105,2.4389758110046387
1772740710080005400,3.62700537109375,0.6388406753540039,-3.4914441108703613,2.1798276901245117
1772740710098764800,3.645764892578125,-1.461747169494629,-3.3909294605255127,1.8535521030426025
1772740710117550600,3.664550537109375,-3.5191006660461426,-3.550551176071167,1.6339246034622192
1772740710136323000,3.683322998046875,-4.894145965576172,-3.8675971031188965,1.564469337463379
1772740710155082500,3.70208251953125,-5.570756912231445,-4.302468299865723,1.5956008434295654
1772740710173868300,3.720868408203125,-5.990724563598633,-4.699015140533447,1.6365981101989746
1772740710192640800,3.739640869140625,-6.46964168548584,-5.046656608581543,1.7045245170593262
1772740710211400400,3.758400390625,-6.996184349060059,-5.453265190124512,1.7431294918060303
1772740710230186000,3.77718603515625,-7.482152938842773,-5.289130210876465,1.727281093597412
1772740710248958700,3.795958740234375,-6.976542949676514,-4.3976054191589355,1.4447983503341675
1772740710267718100,3.81471826171875,-5.312291622161865,-3.1952452659606934,1.1465249061584473
1772740710286504000,3.83350390625,-2.7074971199035645,-1.8995776176452637,0.8983609080314636
1772740710305276400,3.8522763671875,1.5786771774291992,0.2873411178588867,0.8925129175186157
1772740710324036000,3.8710361328125,4.932469367980957,0.6067333221435547,1.553032398223877
1772740710342821600,3.889821533203125,7.9500274658203125,0.9355096817016602,1.6693254709243774
1772740710361594400,3.908594482421875,10.991287231445312,0.4871649742126465,1.995521068572998
1772740710380353800,3.927353759765625,14.85142707824707,-1.1080379486083984,2.3587534427642822
1772740710399139300,3.946139404296875,15.708625793457031,-3.745579719543457,2.2546637058258057
1772740710417912000,3.964912109375,12.289532661437988,-4.886639595031738,1.5624738931655884
1772740710436671500,3.98367138671875,7.54019832611084,-3.7483394145965576,1.1081311702728271
1772740710455457300,4.002457275390625,4.4081573486328125,-2.752598762512207,1.692655086517334
1772740710474229800,4.021229736328125,3.2221174240112305,-1.862375020980835,2.3050127029418945
1772740710492989400,4.039989501953125,2.546131134033203,-1.7567102909088135,2.5689663887023926
1772740710511775000,4.05877490234375,0.7346248626708984,-1.9487078189849854,2.3592545986175537
1772740710530547700,4.077547607421875,-1.3978328704833984,-2.1315994262695312,2.0636727809906006
1772740710549307100,4.09630712890625,-3.0782532691955566,-2.376032590866089,1.8507381677627563
1772740710568093000,4.115093017578125,-4.382025241851807,-2.7713732719421387,1.636358380317688
1772740710586865400,4.133865478515625,-4.884052753448486,-2.98842191696167,1.5982075929641724
1772740710605625000,4.152625,-5.6700825691223145,-3.078441858291626,1.7157561779022217
1772740710624410600,4.17141064453125,-6.785177230834961,-3.000375270843506,1.8710957765579224
1772740710643183400,4.190183349609375,-7.5973920822143555,-2.9018218517303467,1.9605001211166382
1772740710661955800,4.208955810546875,-7.8044962882995605,-2.8382420539855957,2.0567996501922607
1772740710680728600,4.227728515625,-7.345365524291992,-3.0591330528259277,2.2366063594818115
1772740710699501000,4.2465009765625,-6.826254367828369,-3.15606427192688,2.412301540374756
1772740710718273800,4.265273681640625,-6.224056720733643,-3.503716468811035,2.6058707237243652
1772740710737046300,4.28404638671875,-5.750600814819336,-3.7205657958984375,2.2919013500213623
1772740710755818800,4.30281884765625,-4.2325119972229,-3.7883894443511963,1.4608166217803955
1772740710774578400,4.321578369140625,-1.8020548820495605,-3.0515716075897217,0.3332228660583496
1772740710793364000,4.340364013671875,0.5170392990112305,-1.2380828857421875,-0.33169126510620117
1772740710812136700,4.35913671875,5.048318862915039,0.07897663116455078,0.555054783821106
1772740710830896000,4.377896240234375,12.216211318969727,0.048840999603271484,2.8059444427490234
1772740710849682000,4.396681884765625,20.374717712402344,-1.6746418476104736,4.2638936042785645
1772740710868454400,4.415454345703125,23.650039672851562,-5.442361354827881,3.8544652462005615
1772740710887214000,4.434214111328125,18.22270965576172,-8.067887306213379,1.3119754791259766
1772740710905999600,4.45299951171875,9.910866737365723,-6.523988723754883,-0.7924298048019409
1772740710924772400,4.4717724609375,6.0376434326171875,-3.531672954559326,0.12520670890808105
1772740710943531800,4.49053173828125,4.71066951751709,-0.7578384876251221,1.7051386833190918
1772740710962317600,4.509317626953125,3.436263084411621,-0.6184613704681396,2.436876058578491
1772740710981090000,4.528090087890625,1.4837980270385742,-2.3421387672424316,2.271148443222046
1772740710999849700,4.546849609375,0.1427440643310547,-3.8954360485076904,2.3411295413970947
1772740711018635300,4.56563525390625,-0.1533832550048828,-4.521039962768555,2.62082839012146
1772740711037408000,4.584407958984375,-0.23275470733642578,-4.3793487548828125,2.837078094482422
1772740711056167400,4.60316748046875,-1.0040645599365234,-4.253259658813477,2.871195077896118
1772740711074953200,4.621953125,-3.188556671142578,-3.946422576904297,2.609363079071045
1772740711093725700,4.6407255859375,-4.378203392028809,-3.639972686767578,2.6895358562469482
1772740711112485400,4.6594853515625,-5.461087226867676,-3.436657667160034,2.7919704914093018
1772740711131271000,4.67827099609375,-6.455604553222656,-3.0131492614746094,3.0209975242614746
1772740711150043600,4.697043701171875,-7.118588447570801,-2.543199300765991,3.3595571517944336
1772740711168803000,4.715802978515625,-8.17111873626709,-2.261216640472412,3.497387409210205
1772740711187588900,4.7345888671875,-8.7102632522583,-1.9547643661499023,3.475616455078125
1772740711206361300,4.753361328125,-8.57612419128418,-2.259981632232666,3.530013084411621
1772740711225134000,4.772134033203125,-7.75321626663208,-2.6936495304107666,3.6546244621276855
1772740711243906600,4.790906494140625,-5.733181476593018,-3.2443151473999023,3.820858955383301
1772740711262679300,4.80967919921875,-2.775327682495117,-3.432558536529541,3.716719627380371
1772740711281438700,4.828438720703125,-0.7852764129638672,-3.7469587326049805,2.9346060752868652
1772740711300224500,4.847224609375,0.5314092636108398,-3.031838893890381,1.7204124927520752
1772740711318997000,4.8659970703125,4.412532806396484,-2.629706859588623,1.661405086517334
1772740711337756400,4.88475634765625,8.992283821105957,-1.6677381992340088,1.7858648300170898
1772740711356542200,4.903542236328125,12.167455673217773,-1.2540597915649414,1.9395389556884766
1772740711375314700,4.922314697265625,14.121843338012695,-1.4859569072723389,1.6547092199325562
1772740711394074400,4.941074462890625,14.452396392822266,-1.7613122463226318,0.4788767099380493
1772740711412860000,4.95985986328125,13.12646198272705,-1.6363635063171387,-0.8214547634124756
1772740711431632600,4.978632568359375,11.204166412353516,-0.4413135051727295,-1.2855961322784424
1772740711450405000,4.997405029296875,10.171789169311523,0.7339823246002197,-0.6176962852478027
1772740711469177900,5.016177734375,10.581766128540039,0.06411170959472656,0.6024551391601562
1772740711487950300,5.034950439453125,9.52298355102539,-1.5144299268722534,1.1486347913742065
1772740711506710000,5.0537099609375,6.038151741027832,-3.1395909786224365,1.524522066116333
1772740711525495600,5.07249560546875,1.3840446472167969,-3.249584197998047,1.9254504442214966
1772740711544268300,5.091268310546875,-2.164090633392334,-3.0000414848327637,2.5063865184783936
1772740711563027700,5.11002783203125,-4.17500114440918,-2.781681776046753,2.819768190383911
1772740711581813500,5.1288134765625,-5.497391223907471,-2.6570241451263428,2.9674160480499268
1772740711600586000,5.1475859375,-7.057598114013672,-2.2343339920043945,2.82265567779541
1772740711619345700,5.166345703125,-8.814197540283203,-1.8228113651275635,2.668300151824951
1772740711638131200,5.185131103515625,-9.800925254821777,-1.7348785400390625,2.764571189880371
1772740711656904000,5.203904052734375,-9.74255657196045,-2.200822353363037,2.6565914154052734
1772740711675676400,5.222676513671875,-9.691821098327637,-2.7484188079833984,2.4735617637634277
1772740711694449200,5.24144921875,-9.363369941711426,-3.387791633605957,2.2780306339263916
1772740711713221600,5.2602216796875,-9.002169609069824,-3.744530200958252,2.1551907062530518
1772740711731994400,5.278994384765625,-8.678988456726074,-3.886735439300537,2.1297786235809326
1772740711750766800,5.297766845703125,-8.37286376953125,-4.08940315246582,2.1005969047546387
1772740711769539600,5.31653955078125,-7.694424629211426,-4.057542324066162,1.8900649547576904
1772740711788299000,5.335299072265625,-6.150675296783447,-3.57191801071167,1.5800098180770874
1772740711807084800,5.354084716796875,-3.640315532684326,-2.455167293548584,0.9029180407524109
1772740711825857300,5.372857177734375,-0.6691365242004395,-0.8509893417358398,0.2698683738708496
1772740711844617000,5.391616943359375,3.5945730209350586,0.5534610748291016,0.7930275201797485
1772740711863402500,5.410402587890625,10.220806121826172,1.7444877624511719,2.016395330429077
1772740711882175200,5.42917529296875,16.802661895751953,2.6437430381774902,2.333587884902954
1772740711900934700,5.4479345703125,20.211383819580078,0.8405232429504395,2.5404837131500244
1772740711919720400,5.466720458984375,19.817846298217773,-3.0826592445373535,2.174748659133911
1772740711938493000,5.485492919921875,17.681032180786133,-4.889699459075928,1.648328185081482
1772740711957252400,5.50425244140625,14.564814567565918,-3.0623950958251953,1.547192096710205
1772740711976038100,5.5230380859375,11.249961853027344,-0.7978053092956543,2.18561053276062
1772740711994811000,5.541810791015625,8.334551811218262,0.7587690353393555,2.4436709880828857
1772740712013570300,5.5605703125,5.523719787597656,0.9943006038665771,2.3633909225463867
1772740712032355800,5.57935595703125,2.8758020401000977,0.34938549995422363,1.96708083152771
1772740712051128600,5.598128662109375,0.7389163970947266,-0.888437032699585,1.4197343587875366
1772740712069888000,5.616887939453125,-1.5150413513183594,-1.7834653854370117,1.159730315208435
1772740712088673800,5.635673828125,-3.6298084259033203,-2.0593881607055664,1.1958215236663818
1772740712107446300,5.6544462890625,-5.824367523193359,-2.2228899002075195,1.2929142713546753
1772740712126206000,5.6732060546875,-7.1805853843688965,-2.346863269805908,1.3376405239105225
1772740712144991500,5.691991455078125,-7.942822456359863,-2.5378823280334473,1.4624382257461548
1772740712163764200,5.71076416015625,-8.389059066772461,-2.5983691215515137,1.6296358108520508
1772740712182536700,5.72953662109375,-8.43405818939209,-2.667349100112915,1.848968744277954
1772740712201309400,5.748309326171875,-8.856372833251953,-2.864408493041992,2.010727643966675
1772740712220082000,5.76708203125,-9.378636360168457,-3.151978015899658,2.012582778930664
1772740712238854700,5.785854736328125,-9.46378231048584,-3.5769498348236084,2.0105843544006348
1772740712257627100,5.804627197265625,-9.181461334228516,-4.34187126159668,2.048848867416382
1772740712276399900,5.82339990234375,-8.683850288391113,-5.24057149887085,2.111588716506958
1772740712295172400,5.84217236328125,-7.870106220245361,-5.215335369110107,1.9711999893188477
1772740712313945000,5.860945068359375,-6.683977127075195,-3.7740917205810547,1.5038740634918213
1772740712332717600,5.879717529296875,-5.02347469329834,-1.1555819511413574,1.0228091478347778
1772740712351477200,5.898477294921875,-0.05030250549316406,-0.4080824851989746,2.0982518196105957
1772740712370262800,5.9172626953125,8.815402030944824,0.8058371543884277,3.962008476257324
1772740712389035500,5.936035400390625,19.60936737060547,-0.6402401924133301,6.271568298339844
1772740712407795000,5.954794921875,24.583763122558594,-4.362869739532471,6.929755210876465
1772740712426580700,5.973580810546875,21.427722930908203,-6.5584259033203125,5.080782413482666
1772740712445353200,5.992353271484375,16.842693328857422,-5.965076446533203,3.2424285411834717
1772740712464113000,6.01111279296875,15.503238677978516,-3.4198460578918457,3.7029190063476562
1772740712482898400,6.0298984375,12.451400756835938,-0.7906453609466553,4.353791236877441
1772740712501671200,6.048671142578125,8.562793731689453,0.119110107421875,4.084624290466309
1772740712520430600,6.0674306640625,5.493254661560059,-0.359649658203125,3.517486810684204
1772740712539216400,6.08621630859375,2.7134742736816406,-1.1219854354858398,3.128040313720703
1772740712557988900,6.10498876953125,-0.2798452377319336,-1.7197065353393555,2.76153564453125
1772740712576748300,6.123748291015625,-3.326103687286377,-2.348647117614746,2.552253484725952
1772740712595534000,6.1425341796875,-6.00772762298584,-2.612649917602539,2.3738012313842773
1772740712614306800,6.161306884765625,-7.133838653564453,-3.0231542587280273,2.36649227142334
1772740712633066200,6.180066162109375,-7.961092472076416,-3.642153739929199,2.407439708709717
1772740712651852000,6.19885205078125,-9.36325740814209,-3.8496110439300537,2.267158269882202
1772740712670624500,6.21762451171875,-10.5896577835083,-3.7563633918762207,2.2826430797576904
1772740712689384200,6.23638427734375,-11.00231647491455,-3.68900465965271,2.3988842964172363
1772740712708169700,6.255169677734375,-10.350587844848633,-3.6696152687072754,2.553684711456299
1772740712726942500,6.2739423828125,-9.717080116271973,-3.6857542991638184,2.6402587890625
1772740712745715000,6.29271484375,-10.28357982635498,-3.84724760055542,2.4151077270507812
1772740712764487700,6.31148779296875,-9.734881401062012,-3.8315846920013428,2.0117111206054688
1772740712783260200,6.33026025390625,-8.680916786193848,-3.967453718185425,1.7723206281661987
1772740712802019600,6.34901953125,-6.8238654136657715,-3.9569716453552246,1.5729910135269165
1772740712820805400,6.367805419921875,-4.461873531341553,-2.5373823642730713,1.0324786901474
1772740712839578000,6.386578125,-1.6938610076904297,-0.9123389720916748,0.43602895736694336
1772740712858337500,6.405337646484375,3.2645578384399414,-0.03075408935546875,0.5592703819274902
1772740712877123000,6.424123046875,12.790701866149902,-0.5798513889312744,2.3409953117370605
1772740712895895800,6.442895751953125,23.400304794311523,-2.8791098594665527,4.361303329467773
1772740712914655200,6.4616552734375,30.912384033203125,-7.654695510864258,4.521986484527588
1772740712933441000,6.48044091796875,26.779788970947266,-10.203251838684082,1.4471535682678223
1772740712952213500,6.499213623046875,14.682718276977539,-8.600921630859375,-1.59205961227417
1772740712970973200,6.51797314453125,7.5068206787109375,-4.789046287536621,-1.7487713098526
1772740712989758700,6.5367587890625,4.728496551513672,-1.25937819480896,0.0004305839538574219
1772740713008531500,6.555531494140625,3.157872200012207,0.36961936950683594,1.6285130977630615
1772740713027291000,6.574290771484375,2.1495180130004883,0.12090158462524414,2.3552308082580566
1772740713046076700,6.59307666015625,1.6573190689086914,-1.3971970081329346,2.573431968688965
1772740713064849200,6.61184912109375,1.3496665954589844,-2.8013315200805664,2.6195106506347656
1772740713083608800,6.63060888671875,0.012384414672851562,-3.5169601440429688,2.67307186126709
1772740713102394400,6.649394287109375,-1.043288230895996,-3.7104060649871826,2.8326306343078613
1772740713121167000,6.6681669921875,-2.5295372009277344,-3.66215181350708,2.8180017471313477
1772740713139926500,6.686926513671875,-5.0680623054504395,-3.4805164337158203,2.608941078186035
1772740713158712300,6.70571240234375,-6.934124946594238,-3.3871757984161377,2.494199752807617
1772740713177484800,6.72448486328125,-7.795041561126709,-3.438053607940674,2.417832136154175
1772740713196244200,6.743244140625,-8.826682090759277,-3.4767346382141113,2.369393825531006
1772740713215030000,6.762030029296875,-9.370116233825684,-3.44022536277771,2.441272020339966
1772740713233802800,6.780802734375,-9.53172779083252,-3.6487882137298584,2.503744125366211
1772740713252575200,6.7995751953125,-9.976506233215332,-3.7094409465789795,2.5904829502105713
1772740713271348000,6.818347900390625,-9.611660957336426,-3.541823387145996,2.6609952449798584
1772740713290120400,6.837120361328125,-9.019336700439453,-3.5092411041259766,2.5678889751434326
1772740713308893200,6.85589306640625,-8.270586013793945,-2.7754368782043457,2.158006429672241
1772740713327665700,6.874665771484375,-6.879419326782227,-1.473280668258667,1.7676267623901367
1772740713346438400,6.8934384765625,-3.457350730895996,0.09476327896118164,2.3017163276672363
1772740713365197800,6.91219775390625,4.600502967834473,1.027322769165039,3.8702938556671143
1772740713383983600,6.930983642578125,14.770746231079102,-0.1975419521331787,5.456793785095215
1772740713402756000,6.949756103515625,19.182598114013672,-3.2996931076049805,4.927469253540039
1772740713421515500,6.968515625,18.29596519470215,-6.014858245849609,3.42082142829895
1772740713440301300,6.98730126953125,18.290512084960938,-5.6375932693481445,2.876363754272461
1772740713459073800,7.00607373046875,17.85321807861328,-4.5042877197265625,3.5640830993652344
1772740713477833500,7.02483349609375,14.945209503173828,-2.894191265106201,4.07180118560791
1772740713496619000,7.043618896484375,11.111266136169434,-1.4350578784942627,4.241788387298584
1772740713515391700,7.062391845703125,6.641205787658691,-0.8269493579864502,3.774172306060791
1772740713534151200,7.081151123046875,2.838261604309082,-1.018817663192749,3.142395496368408
1772740713552937000,7.09993701171875,-0.12218284606933594,-1.4254508018493652,2.5570757389068604
1772740713571709400,7.11870947265625,-2.448082447052002,-1.603989839553833,2.3118982315063477
1772740713590469000,7.13746923828125,-4.592962741851807,-1.603392243385315,2.194368362426758
1772740713609254700,7.156254638671875,-6.555425643920898,-1.9481384754180908,1.9550414085388184
1772740713628027400,7.17502734375,-7.5183329582214355,-2.383261203765869,1.9122414588928223
1772740713646786800,7.193786865234375,-8.272679328918457,-2.7954490184783936,1.944584608078003
1772740713665572600,7.212572509765625,-8.899523735046387,-3.245182514190674,1.9739772081375122
1772740713684345000,7.231344970703125,-8.960062026977539,-3.475557804107666,2.048532009124756
1772740713703117800,7.250117919921875,-9.312016487121582,-3.693202257156372,2.1278276443481445
1772740713721890300,7.268890380859375,-9.739330291748047,-3.6893882751464844,2.293597459793091
1772740713740663000,7.2876630859375,-9.772733688354492,-3.6640782356262207,2.4681408405303955
1772740713759435500,7.306435546875,-9.350004196166992,-3.5813419818878174,2.6600992679595947
1772740713778208300,7.325208251953125,-8.40555477142334,-3.6210668087005615,2.6223249435424805
1772740713796980700,7.343980712890625,-7.343521595001221,-3.698446035385132,2.3609073162078857
1772740713815740200,7.362740234375,-5.528531074523926,-3.2674825191497803,2.026376247406006
1772740713834526000,7.38152587890625,-2.361619472503662,-1.7963075637817383,1.5185651779174805
1772740713853298700,7.400298583984375,0.6011075973510742,0.4949378967285156,0.4120337963104248
1772740713872058000,7.41905810546875,5.64235782623291,0.8703923225402832,0.38740599155426025
1772740713890843600,7.43784375,15.267154693603516,-0.5799272060394287,1.8571206331253052
1772740713909616400,7.456616455078125,22.054973602294922,-3.360746383666992,2.8907899856567383
1772740713928375800,7.475375732421875,21.631927490234375,-5.660982131958008,2.231090545654297
1772740713947161600,7.49416162109375,19.17677879333496,-5.563088417053223,0.8860468864440918
1772740713965934000,7.51293408203125,14.52974796295166,-4.439713001251221,-0.18198704719543457
1772740713984693800,7.53169384765625,9.225205421447754,-2.6172924041748047,-0.40277814865112305
1772740714003479300,7.550479248046875,6.168210983276367,-1.0308473110198975,0.1777036190032959
1772740714022252000,7.569251953125,4.390721321105957,-0.2102985382080078,0.7430078983306885
1772740714041011500,7.588011474609375,3.644280433654785,-0.6705751419067383,1.1793309450149536
1772740714059797200,7.60679736328125,3.4917850494384766,-1.8071401119232178,1.6821259260177612
1772740714078569700,7.62556982421875,2.1869325637817383,-2.6633262634277344,2.033658027648926
1772740714097329400,7.644329345703125,0.3199129104614258,-2.985074281692505,2.3940324783325195
1772740714116115000,7.663114990234375,-1.2537364959716797,-2.8727762699127197,2.9475173950195312
1772740714134887700,7.6818876953125,-3.165616989135742,-3.135262966156006,3.095477819442749
1772740714153647000,7.700647216796875,-4.917506217956543,-3.375073194503784,2.9799387454986572
1772740714172433000,7.719432861328125,-6.203793048858643,-3.685166358947754,2.9701483249664307
1772740714191205400,7.738205322265625,-7.673280715942383,-3.9502952098846436,2.905498504638672
1772740714209965000,7.756965087890625,-8.809006690979004,-4.023706912994385,2.949733018875122
1772740714228750600,7.77575048828125,-9.114075660705566,-3.766322135925293,3.1638107299804688
1772740714247523300,7.7945234375,-9.140998840332031,-3.815737724304199,3.457057476043701
1772740714266295800,7.8132958984375,-9.316731452941895,-4.131551742553711,3.5332045555114746
1772740714285068500,7.832068603515625,-9.498010635375977,-4.34337043762207,3.4316017627716064
1772740714303841000,7.850841064453125,-8.30070686340332,-3.664012908935547,3.1899986267089844
1772740714322600700,7.8696005859375,-6.580199718475342,-2.649493932723999,2.813209056854248
1772740714341386200,7.88838623046875,-3.545508861541748,-0.9301085472106934,2.5199830532073975
1772740714360159000,7.907158935546875,-0.9319090843200684,0.8667612075805664,2.2977709770202637
1772740714378918400,7.92591845703125,2.601017951965332,1.8570561408996582,2.6862637996673584
1772740714397704200,7.9447041015625,9.256186485290527,0.9835271835327148,3.597501754760742
1772740714416476700,7.9634765625,15.68288516998291,-1.6281476020812988,3.945064067840576
1772740714435236400,7.982236328125,17.027467727661133,-4.47808313369751,2.8337044715881348
1772740714454022000,8.00102197265625,15.12263011932373,-4.854318141937256,1.2612929344177246
1772740714472794600,8.019794677734374,12.06808090209961,-3.643846273422241,0.6066263914108276
1772740714491554000,8.038553955078125,10.750022888183594,-1.5930638313293457,1.3423494100570679
1772740714510339800,8.05733984375,9.909239768981934,-0.13859987258911133,2.2726099491119385
1772740714529112300,8.0761123046875,7.823147773742676,0.5610461235046387,2.6840858459472656
1772740714547872000,8.0948720703125,5.4053544998168945,0.5754776000976562,2.7608656883239746
1772740714566657500,8.113657470703124,2.9379167556762695,0.026381254196166992,2.624730110168457
1772740714585430300,8.13243017578125,0.9156265258789062,-0.37653422355651855,2.582095146179199
1772740714604189700,8.151189697265625,-0.46829891204833984,-0.8427402973175049,2.7518439292907715
1772740714622975500,8.1699755859375,-1.993196964263916,-1.329791784286499,2.8385982513427734
1772740714641748000,8.188748046875,-4.156727313995361,-1.4098857641220093,2.7899067401885986
1772740714660507600,8.207507568359375,-6.296126365661621,-1.3845765590667725,2.8054895401000977
1772740714679293200,8.226293212890624,-7.572278022766113,-1.5313442945480347,2.8890721797943115
1772740714698066000,8.24506591796875,-7.590964317321777,-2.1558868885040283,2.955329656600952
1772740714716838400,8.26383837890625,-7.653131484985352,-2.825754404067993,2.87608003616333
1772740714735611100,8.282611083984374,-7.878821849822998,-3.301826000213623,2.744687557220459
1772740714754383600,8.301383544921874,-8.656218528747559,-3.532585620880127,2.651663064956665
1772740714773156000,8.320156005859374,-9.11833381652832,-3.1377615928649902,2.7096989154815674
1772740714791928800,8.3389287109375,-8.431520462036133,-2.920570135116577,2.9325740337371826
1772740714810701600,8.35770166015625,-7.709020137786865,-2.991421699523926,2.8851356506347656
1772740714829461000,8.3764609375,-6.26078987121582,-3.1882128715515137,2.4264895915985107
1772740714848246800,8.395246826171874,-3.5990729331970215,-3.3009109497070312,1.889967679977417
1772740714867019300,8.414019287109374,-1.0683178901672363,-2.128169536590576,0.8013753890991211
1772740714885779000,8.432779052734375,2.2848567962646484,-0.7056694030761719,-0.04696917533874512
1772740714904564500,8.451564453125,6.979662895202637,0.20365476608276367,0.48035120964050293
1772740714923337200,8.470337158203124,13.473100662231445,0.2914152145385742,2.0268068313598633
1772740714942096600,8.4890966796875,18.285749435424805,-1.2370054721832275,2.828944206237793
1772740714960882400,8.50788232421875,19.15869140625,-4.536187171936035,2.8593406677246094
1772740714979655000,8.526655029296874,16.34746551513672,-5.704496383666992,2.156431198120117
1772740714998414300,8.545414306640625,11.633004188537598,-4.2040510177612305,1.3184163570404053
1772740715017200000,8.5642001953125,7.9529008865356445,-2.124075412750244,0.8405296802520752
1772740715035972600,8.58297265625,5.577122688293457,-1.682589054107666,0.8884016275405884
1772740715054732300,8.601732177734375,4.076825141906738,-1.9723851680755615,1.3903166055679321
1772740715073517800,8.620517822265626,2.188584327697754,-2.025301933288574,2.013713836669922
1772740715092290600,8.63929052734375,0.15215110778808594,-2.31496262550354,2.466404676437378
1772740715111050000,8.658050048828125,-0.8276739120483398,-2.9358668327331543,3.039562463760376
1772740715129835800,8.676835693359376,-1.7456130981445312,-3.141200065612793,3.46675705909729
1772740715148608500,8.6956083984375,-3.271860122680664,-2.4298229217529297,3.7943499088287354
1772740715167368000,8.714367919921875,-4.958131790161133,-1.8729057312011719,3.8297743797302246
1772740715186153700,8.73315380859375,-6.273420333862305,-1.154597282409668,3.7321617603302
1772740715204926200,8.75192626953125,-7.305935859680176,-0.9982701539993286,3.609102249145508
1772740715223685600,8.770685546875,-8.351943016052246,-1.0139994621276855,3.3900866508483887
1772740715242471400,8.789471435546876,-9.67872428894043,-1.1759607791900635,3.133603572845459
1772740715261244200,8.808244140625,-10.4660062789917,-1.1741111278533936,2.811396837234497
1772740715280016600,8.8270166015625,-10.251313209533691,-1.2606086730957031,2.633028030395508
1772740715298789000,8.8457890625,-9.28402328491211,-1.4561245441436768,2.537478446960449
1772740715317561900,8.864561767578126,-8.103425025939941,-1.800893783569336,2.4787397384643555
1772740715336321300,8.8833212890625,-6.70964241027832,-1.8868587017059326,2.28094220161438
1772740715355107000,8.902107177734376,-5.084436893463135,-1.534200668334961,1.9916318655014038
1772740715373879600,8.920879638671876,-3.1081485748291016,-0.41079115867614746,1.0304213762283325
1772740715392639200,8.93963916015625,0.7060337066650391,0.8995370864868164,1.0926647186279297
1772740715411425000,8.958425048828126,8.69792366027832,1.1715712547302246,2.7366280555725098
1772740715430197500,8.977197509765626,18.20107650756836,-1.25834321975708,3.8893074989318848
1772740715448957000,8.99595703125,20.800334930419922,-3.982693672180176,3.170225143432617
1772740715467742700,9.01474267578125,18.930744171142578,-5.236541271209717,2.9399654865264893
1772740715486515500,9.033515380859376,16.039546966552734,-3.6856930255889893,3.0271825790405273
1772740715505275000,9.05227490234375,12.258627891540527,-2.225738525390625,2.7720537185668945
1772740715524060700,9.071060791015626,8.89480209350586,-1.1184968948364258,2.7029366493225098
1772740715542833200,9.089833251953126,6.435652732849121,0.03870749473571777,3.1168055534362793
1772740715561592600,9.108592529296875,4.319090843200684,0.4855625629425049,3.218021869659424
1772740715580378400,9.12737841796875,2.4482059478759766,0.15627312660217285,2.912789821624756
1772740715599150800,9.14615087890625,0.8938770294189453,-0.19006729125976562,2.826253890991211
1772740715617910500,9.16491064453125,-0.47032833099365234,-0.4471871852874756,2.8915491104125977
1772740715636696300,9.1836962890625,-1.8606042861938477,-0.6836274862289429,2.8179187774658203
1772740715655468800,9.20246875,-3.8152213096618652,-0.9447457790374756,2.7920663356781006
1772740715674228500,9.221228515625,-6.01037073135376,-1.0083143711090088,2.753024101257324
1772740715693014000,9.240013916015625,-7.776485443115234,-1.3333730697631836,2.609506607055664
1772740715711786800,9.258786865234375,-8.492552757263184,-1.7130385637283325,2.606613874435425
1772740715730546200,9.277546142578124,-9.190418243408203,-1.7481801509857178,2.576077938079834
1772740715749332000,9.29633203125,-10.048942565917969,-1.499813199043274,2.4218389987945557
1772740715768104400,9.3151044921875,-10.635896682739258,-1.3965815305709839,2.333784341812134
1772740715786877000,9.333876953125,-10.485177040100098,-1.4415898323059082,2.298793077468872
1772740715805649700,9.352649658203125,-9.466093063354492,-1.3462190628051758,2.2252368927001953
1772740715824422400,9.37142236328125,-7.993405818939209,-1.6918830871582031,2.076737403869629
1772740715843181800,9.390181884765624,-6.749914169311523,-1.8486886024475098,1.6744366884231567
1772740715861967600,9.408967529296875,-5.5227766036987305,-1.3552908897399902,1.0044515132904053
1772740715880740000,9.427739990234375,-3.17692232131958,-0.3037984371185303,-0.0542527437210083
1772740715899499800,9.446499755859374,0.8243350982666016,-0.10697364807128906,-1.0154708623886108
1772740715918285300,9.465285400390625,6.601624488830566,-1.6483967304229736,-0.6911462545394897
1772740715937058000,9.48405810546875,12.167271614074707,-2.4478237628936768,0.2480546236038208
1772740715955817500,9.5028173828125,15.660184860229492,-3.0494799613952637,1.9977195262908936
1772740715974603300,9.521603271484375,16.95579719543457,-3.967177629470825,3.7912144660949707
1772740715993375700,9.540375732421875,14.724939346313477,-4.411972522735596,3.9052257537841797
1772740716012135200,9.55913525390625,10.553043365478516,-4.0909013748168945,2.554086923599243
1772740716030921000,9.5779208984375,7.548300743103027,-3.041276693344116,1.4099113941192627
1772740716049693700,9.596693603515625,4.9495344161987305,-1.6298401355743408,0.6064926981925964
1772740716068453000,9.615453125,3.0979557037353516,-0.708256721496582,0.45508819818496704
1772740716087239000,9.634239013671875,3.1878433227539062,0.08350157737731934,1.0168113708496094
1772740716106011400,9.653011474609375,4.331643104553223,0.027337074279785156,1.4112344980239868
1772740716124771000,9.67177099609375,3.813300132751465,-1.1228893995285034,1.1605219841003418
1772740716143556600,9.690556640625,2.0357284545898438,-1.750626802444458,1.0140559673309326
1772740716162329300,9.709329345703125,1.0222206115722656,-1.0821298360824585,1.5789704322814941
1772740716181088800,9.7280888671875,-0.8462581634521484,-0.4864356517791748,1.7848519086837769
1772740716199874600,9.74687451171875,-2.0771713256835938,-0.7655812501907349,1.945146083831787
1772740716218647000,9.76564697265625,-3.783867359161377,-1.0248152017593384,2.1166298389434814
1772740716237406700,9.78440673828125,-4.965877056121826,-1.2784690856933594,2.002462148666382
1772740716256192300,9.803192138671875,-4.611994743347168,-1.1938608884811401,1.9875850677490234
1772740716274965000,9.821965087890625,-4.69549036026001,-0.9192007780075073,2.3455557823181152
1772740716293724400,9.840724365234376,-5.736076354980469,-0.9136590957641602,2.5167343616485596
1772740716312510200,9.85951025390625,-6.971107482910156,-1.4525880813598633,2.4967315196990967
1772740716331282700,9.87828271484375,-6.755777835845947,-1.7829482555389404,2.5564680099487305
