time,seconds_elapsed,z,y,x
1772740706643617000,0.190616943359375,0.10231691598892212,-0.06917845457792282,-1.2271921634674072
1772740706671776000,0.21877587890625,0.35658207535743713,0.0781884491443634,-0.1566823273897171
1772740706690548500,0.237548583984375,0.3417690396308899,-0.15775130689144135,0.929404079914093
1772740706709321000,0.256321044921875,0.3489464819431305,-0.4088095426559448,1.6274497509002686
1772740706728093700,0.27509375,0.4865398406982422,-0.6265766024589539,1.8638477325439453
1772740706746866200,0.2938662109375,0.7215633392333984,-0.8657232522964478,2.0229732990264893
1772740706765638700,0.312638671875,0.8296833038330078,-0.8758022785186768,2.1135315895080566
1772740706784411400,0.331411376953125,0.7786775231361389,-0.4181249439716339,1.932415246963501
1772740706803183900,0.350183837890625,0.6415423154830933,0.18279604613780975,1.5659070014953613
1772740706821956600,0.36895654296875,0.5338805317878723,0.5079194903373718,1.2015365362167358
1772740706840729000,0.38772900390625,0.42041563987731934,0.23624517023563385,1.1407572031021118
1772740706859501600,0.40650146484375,0.7962393760681152,-0.39918869733810425,1.6645587682724
1772740706878274300,0.4252744140625,1.0874608755111694,-1.6758594512939453,1.6205778121948242
1772740706897046800,0.444046875,1.1392301321029663,-1.9733420610427856,-0.38819342851638794
1772740706915819300,0.4628193359375,0.5946598052978516,-0.9567395448684692,-2.699334144592285
1772740706934578700,0.48157861328125,-0.4217900335788727,0.06368082761764526,-2.6773436069488525
1772740706953364500,0.500364501953125,-1.0726478099822998,0.7441646456718445,-1.107924222946167
1772740706972137000,0.519136962890625,-0.6624638438224792,1.064401388168335,-0.44301697611808777
1772740706990896400,0.537896484375,-0.003970507066696882,1.2053543329238892,0.04611896723508835
1772740707009682200,0.55668212890625,0.31473904848098755,1.0912786722183228,0.2655658423900604
1772740707028454700,0.57545458984375,0.33978378772735596,0.7398887276649475,0.05787777900695801
1772740707047214000,0.594214111328125,0.24342262744903564,0.33443886041641235,-0.222042977809906
1772740707066000000,0.612999755859375,0.1453816443681717,-0.032069481909275055,-0.35474956035614014
1772740707084772400,0.6317724609375,0.056961506605148315,-0.18936264514923096,-0.37414395809173584
1772740707103531800,0.65053173828125,-0.0015271181473508477,-0.07605048269033432,-0.2480039894580841
1772740707122317600,0.669317626953125,-0.03023693896830082,0.19470755755901337,0.05482354015111923
1772740707141090000,0.688090087890625,-0.011911521665751934,0.367730051279068,0.41445985436439514
1772740707159849700,0.706849609375,0.0010689827613532543,0.27976804971694946,0.6922426819801331
1772740707178635300,0.72563525390625,-0.06658235192298889,0.1579040139913559,0.7941014170646667
1772740707197407700,0.74440771484375,-0.11361759155988693,0.20661908388137817,0.8061656951904297
1772740707216167400,0.76316748046875,-0.188599094748497,0.2557922899723053,0.8745805621147156
1772740707234953000,0.781952880859375,-0.2154763638973236,0.2916795611381531,0.9836167693138123
1772740707253725400,0.800725341796875,-0.18554484844207764,0.2916795611381531,1.0969289541244507
1772740707272498200,0.819498291015625,-0.14034216105937958,0.22219568490982056,1.1670236587524414
1772740707291270700,0.838270751953125,-0.14018943905830383,0.07620319724082947,1.097845196723938
1772740707310043100,0.857043212890625,-0.188599094748497,0.04993676394224167,0.8202151656150818
1772740707328802800,0.875802734375,-0.22051586210727692,0.12613995373249054,0.441795289516449
1772740707347588400,0.89458837890625,-0.14843589067459106,-0.13682979345321655,0.20692451298236847
1772740707366361000,0.913361083984375,-0.05467082932591438,-0.8458707332611084,0.241742804646492
1772740707385120500,0.93212060546875,-0.08292251825332642,-1.7462595701217651,0.3158080279827118
1772740707403906000,0.950906005859375,-0.24708771705627441,-2.1124625205993652,-0.40331190824508667
1772740707422678800,0.9696787109375,-0.8058602213859558,-1.318819284439087,-1.8129947185516357
1772740707441438200,0.988438232421875,-1.2737692594528198,-0.07666133344173431,-3.0594284534454346
1772740707460224000,1.00722412109375,-1.4289244413375854,0.02351761981844902,-3.650270462036133
1772740707478996500,1.02599658203125,-1.2430741786956787,-0.46302223205566406,-3.2851364612579346
1772740707497756000,1.044755859375,-0.7580614686012268,-0.776692271232605,-2.3039631843566895
1772740707516541700,1.063541748046875,-0.17989452183246613,-0.6720846891403198,-1.3108782768249512
1772740707535314200,1.082314208984375,0.30481278896331787,-0.31443363428115845,-0.3953709006309509
1772740707554073600,1.101073486328125,0.7180509567260742,-0.21807247400283813,0.08353336155414581
1772740707572859400,1.119859375,1.058598279953003,-0.2570139765739441,0.05635065957903862
1772740707591632000,1.1386318359375,1.2175712585449219,-0.04337015375494957,-0.1698155403137207
1772740707610391300,1.157391357421875,1.1276240348815918,0.4315635859966278,-0.18646112084388733
1772740707629177000,1.176177001953125,0.9274188280105591,0.8292251825332642,0.05390727147459984
1772740707647949600,1.194949462890625,0.6917845010757446,1.0161443948745728,0.4428642690181732
1772740707666709200,1.213709228515625,0.5682406425476074,1.016755223274231,0.9009997248649597
1772740707685494800,1.232494873046875,0.6270347237586975,0.9940012097358704,1.342336893081665
1772740707704267300,1.251267333984375,0.7510367035865784,1.0370659828186035,1.719840407371521
1772740707723027000,1.27002685546875,0.7882983684539795,1.1163233518600464,1.9562383890151978
1772740707741812500,1.2888125,0.7968502640724182,1.103342890739441,2.0209882259368896
1772740707760585000,1.3075849609375,0.8115105628967285,1.0283613204956055,1.9721204042434692
1772740707779357700,1.326357666015625,0.7760814428329468,0.8550334572792053,1.7554223537445068
1772740707798130200,1.345130126953125,0.6581879258155823,0.8254073858261108,1.303395390510559
1772740707816903000,1.36390283203125,0.4987567961215973,1.0587509870529175,1.0544750690460205
1772740707835662300,1.382662353515625,0.43645036220550537,1.100746750831604,1.2475028038024902
1772740707854447900,1.40144775390625,0.6656708121299744,0.3658975064754486,1.371199369430542
1772740707873220600,1.420220703125,0.8214368224143982,-0.7968502640724182,1.5727789402008057
1772740707891980000,1.43897998046875,0.883590579032898,-1.9921256303787231,1.0628741979599
1772740707910765800,1.457765869140625,0.7117897868156433,-2.554563283920288,-0.5219689607620239
1772740707929538300,1.476538330078125,0.05238015204668045,-1.9777706861495972,-2.2564697265625
1772740707948297700,1.495297607421875,-0.9695672988891602,-0.3208475112915039,-2.9546682834625244
1772740707967083500,1.51408349609375,-1.5732370615005493,1.2297883033752441,-2.5237154960632324
1772740707985856000,1.53285595703125,-1.3870813846588135,1.4643535614013672,-2.0028154850006104
1772740708004615400,1.551615478515625,-0.7684458494186401,0.7982246279716492,-1.8722468614578247
1772740708023401200,1.570401123046875,-0.10231691598892212,-0.13973131775856018,-1.9577654600143433
1772740708042173700,1.589173583984375,0.36223241686820984,-0.5635066032409668,-2.0067858695983887
1772740708060933400,1.607933349609375,0.5454866290092468,-0.47920966148376465,-1.6405830383300781
1772740708079719000,1.626718994140625,0.7464553713798523,-0.33535513281822205,-0.9359707236289978
1772740708098491600,1.64549169921875,0.8466343283653259,-0.18676654994487762,-0.23777230083942413
1772740708117251000,1.6642509765625,0.7143858671188354,-0.05635065957903862,0.46134239435195923
1772740708136036600,1.68303662109375,0.49860408902168274,-0.007177455350756645,1.1348015069961548
1772740708154809300,1.701809326171875,0.3274141252040863,-0.03390202298760414,1.7190768718719482
1772740708173568800,1.72056884765625,0.28068432211875916,-0.10873081535100937,2.132315158843994
1772740708192354600,1.7393544921875,0.39735615253448486,-0.14248012006282806,2.30869722366333
1772740708211127000,1.758126953125,0.5112791657447815,-0.07513421028852463,2.2628836631774902
1772740708229899500,1.7768994140625,0.5691569447517395,0.12629267573356628,2.1477389335632324
1772740708248672300,1.79567236328125,0.6074876189231873,0.3110739588737488,2.053973913192749
1772740708267444700,1.81444482421875,0.5025745630264282,0.18401773273944855,1.946770191192627
1772740708286204400,1.833204345703125,0.4056025743484497,-0.08842013776302338,1.80673348903656
1772740708304990000,1.851989990234375,0.30068957805633545,-0.42667680978775024,1.5022261142730713
1772740708323762400,1.870762451171875,0.3477247953414917,-0.6172611713409424,1.1848909854888916
1772740708342522000,1.889522216796875,0.7803573608398438,-0.7786775231361389,1.1056334972381592
1772740708361307600,1.9083076171875,0.9345963001251221,-1.7425944805145264,0.5983248949050903
1772740708380080400,1.927080322265625,0.5128062963485718,-3.1486122608184814,-1.3371446132659912
1772740708398839800,1.94583984375,-0.28343313932418823,-3.826958179473877,-3.7538092136383057
1772740708417625600,1.96462548828125,-1.220472812652588,-3.0322458744049072,-5.289937496185303
1772740708436398000,1.983398193359375,-1.912410020828247,-0.9051229357719421,-5.227630615234375
1772740708455157500,2.002157470703125,-1.5946167707443237,1.1129636764526367,-4.36435079574585
1772740708473943300,2.020943359375,-0.6617003083229065,1.590951681137085,-3.7878639698028564
1772740708492715800,2.0397158203125,0.09009996801614761,0.7574505805969238,-3.1234147548675537
1772740708511475500,2.058475341796875,0.5041016936302185,0.0050394898280501366,-1.7596982717514038
1772740708530261000,2.077260986328125,0.626882016658783,-0.24846212565898895,-0.44790375232696533
1772740708549033500,2.096033447265625,0.6769714951515198,0.18737739324569702,0.21349111199378967
1772740708567793200,2.114793212890625,0.7837170362472534,1.2516260147094727,0.25350162386894226
1772740708586578700,2.13357861328125,0.8102889060974121,1.9823520183563232,0.21471281349658966
1772740708605351400,2.152351318359375,0.5728220343589783,1.951351523399353,0.2858765125274658
1772740708624110800,2.17111083984375,0.29626092314720154,1.409071922302246,0.5421269536018372
1772740708642896400,2.189896484375,0.13316470384597778,0.9035958051681519,1.0511153936386108
1772740708661669000,2.208669189453125,0.22402822971343994,0.5885513424873352,1.7126630544662476
1772740708680428500,2.227428466796875,0.4459185004234314,0.3374931216239929,2.2633419036865234
1772740708699214300,2.24621435546875,0.6297835111618042,0.16309621930122375,2.6283230781555176
1772740708717986800,2.26498681640625,0.6383354067802429,0.06459710001945496,2.8195183277130127
1772740708736759600,2.283759521484375,0.5212054252624512,0.04413371533155441,2.797069549560547
1772740708755532000,2.302531982421875,0.2770192325115204,-0.0456608310341835,2.461256265640259
1772740708774304500,2.321304443359375,-0.007330167107284069,-0.26755109429359436,1.9696769714355469
1772740708793064200,2.340064208984375,-0.22586077451705933,-0.46638187766075134,1.598129153251648
1772740708811849700,2.358849609375,-0.07986827939748764,-0.7624900937080383,1.4544273614883423
1772740708830622500,2.37762255859375,0.35566580295562744,-1.4571760892868042,1.513068675994873
1772740708849382000,2.3963818359375,0.7893673777580261,-2.3193869590759277,1.7871863842010498
1772740708868167700,2.415167724609375,0.6693359017372131,-3.0278172492980957,1.3209571838378906
1772740708886940200,2.433940185546875,0.04337015375494957,-3.1519718170166016,-0.37231141328811646
1772740708905699600,2.452699462890625,-0.8562551736831665,-2.1747689247131348,-2.522341012954712
1772740708924485400,2.4714853515625,-1.6627262830734253,0.21868331730365753,-3.586894989013672
1772740708943257900,2.4902578125,-1.7097615003585815,2.569070816040039,-3.44197154045105
1772740708962017500,2.509017578125,-0.9100096821784973,3.1321194171905518,-2.956042528152466
1772740708980803000,2.527802978515625,-0.06169557198882103,2.149876832962036,-2.652451515197754
1772740708999575800,2.546575927734375,0.4187358021736145,0.7417212724685669,-2.3881072998046875
1772740709018348300,2.565348388671875,0.4431696832180023,-0.20875705778598785,-2.0058696269989014
1772740709037120800,2.584120849609375,0.21654535830020905,-0.46729815006256104,-1.6601301431655884
1772740709055893500,2.6028935546875,0.014507622458040714,-0.1453816443681717,-1.3582189083099365
1772740709074666000,2.621666015625,-0.022906772792339325,0.30969956517219543,-1.1641221046447754
1772740709093438700,2.640438720703125,0.08261708915233612,0.7211052179336548,-0.8997780084609985
1772740709112211200,2.659211181640625,0.2895416021347046,0.964069664478302,-0.38910970091819763
1772740709130970600,2.677970703125,0.5844281315803528,1.0344698429107666,0.4474456310272217
1772740709149756400,2.69675634765625,0.8875610828399658,0.9520054459571838,1.4212888479232788
1772740709168529000,2.71552880859375,1.1534323692321777,0.7667660117149353,2.3238155841827393
1772740709187288600,2.73428857421875,1.3472236394882202,0.5780141949653625,3.0126986503601074
1772740709206074000,2.75307421875,1.4420576095581055,0.44255882501602173,3.4065425395965576
1772740709224846800,2.771846923828125,1.3481398820877075,0.37383851408958435,3.526115894317627
1772740709243619300,2.790619384765625,1.1242643594741821,0.32695600390434265,3.4445676803588867
1772740709262392000,2.80939208984375,0.9002361297607422,0.21288026869297028,3.1550261974334717
1772740709281164500,2.82816455078125,0.7134696245193481,-0.06337540596723557,2.5760955810546875
1772740709299924000,2.846924072265625,0.6797202825546265,-0.3005368411540985,1.8640004396438599
1772740709318709800,2.865709716796875,0.9903361201286316,-0.5209000110626221,1.3634110689163208
1772740709337482200,2.884482177734375,1.3919682502746582,-1.266897201538086,0.9462023973464966
1772740709356242000,2.903241943359375,1.3653963804244995,-2.32015061378479,0.02993151545524597
1772740709375027500,2.92202734375,0.7475243210792542,-3.1342573165893555,-1.6239374876022339
1772740709393800200,2.94080029296875,-0.24479703605175018,-3.1779329776763916,-3.648132562637329
1772740709412559600,2.9595595703125,-1.2074923515319824,-1.8556013107299805,-4.766746520996094
1772740709431345400,2.978345458984375,-2.0663435459136963,0.5070032477378845,-4.968173503875732
1772740709450118000,2.997117919921875,-1.7412201166152954,2.3818461894989014,-4.801870346069336
1772740709468877300,3.015877197265625,-1.0231691598892212,3.0391178131103516,-4.132839679718018
1772740709487663000,3.0346630859375,-0.0784938707947731,2.5014195442199707,-2.8538784980773926
1772740709506435600,3.053435546875,0.6694886088371277,1.478403091430664,-1.2479609251022339
1772740709525195300,3.0721953125,1.0106468200683594,0.566408097743988,0.10323318839073181
1772740709543980800,3.090980712890625,0.9013051390647888,-0.0065666078589856625,0.836860716342926
1772740709562753500,3.10975341796875,0.4230117201805115,-0.3064926266670227,0.9155073165893555
1772740709581513000,3.128512939453125,-0.2617480456829071,-0.3174878656864166,0.6288672685623169
1772740709600298500,3.147298583984375,-0.8605310916900635,0.10827267915010452,0.49829864501953125
1772740709619071200,3.1660712890625,-1.2006202936172485,0.6639909744262695,0.7004891037940979
1772740709637830700,3.18483056640625,-1.2123790979385376,1.1566393375396729,1.100746750831604
1772740709656616400,3.203616455078125,-0.9920159578323364,1.3815838098526,1.4761123657226562
1772740709675389000,3.222388916015625,-0.7081246972084045,1.1800042390823364,1.735569715499878
1772740709694148600,3.241148681640625,-0.474017471075058,0.6769714951515198,1.8284186124801636
1772740709712934100,3.25993408203125,-0.3694098889827728,0.04825693368911743,1.7057909965515137
1772740709731707000,3.278706787109375,-0.3626905679702759,-0.23380178213119507,1.4136532545089722
1772740709750466300,3.29746630859375,-0.45676103234291077,-0.26602399349212646,1.2247487306594849
1772740709769252000,3.316252197265625,-0.4775298535823822,-0.03634541109204292,1.3556227684020996
1772740709788024600,3.335024658203125,-0.4030064642429352,0.2441861927509308,1.7467176914215088
1772740709806784000,3.353783935546875,-0.33886751532554626,0.058183200657367706,1.9841846227645874
1772740709825569800,3.37256982421875,-0.41354358196258545,-0.7982246279716492,1.8890451192855835
1772740709844342300,3.39134228515625,-0.5792359113693237,-1.8436896800994873,0.955212414264679
1772740709863102000,3.41010205078125,-0.7675296068191528,-2.443847179412842,-0.7385143637657166
1772740709881887500,3.428887451171875,-1.0491302013397217,-2.4233837127685547,-2.8540310859680176
1772740709900660200,3.44766015625,-1.5404040813446045,-1.1019684076309204,-4.361449241638184
1772740709919419600,3.466419677734375,-1.9215728044509888,0.8258655071258545,-4.357326030731201
1772740709938205400,3.485205322265625,-1.7248799800872803,1.3890666961669922,-3.2190122604370117
1772740709956978000,3.50397802734375,-1.1456440687179565,0.6824691295623779,-2.3823041915893555
1772740709975737300,3.5227373046875,-0.5372401475906372,-0.36314868927001953,-2.1617884635925293
1772740709994523100,3.541523193359375,-0.23242738842964172,-0.9513946175575256,-1.9162278175354004
1772740710013295900,3.5602958984375,-0.33230090141296387,-1.0098832845687866,-1.4284663200378418
1772740710032055300,3.57905517578125,-0.5325061082839966,-0.6013791561126709,-0.9208522439002991
1772740710050841000,3.597841064453125,-0.6533011198043823,-0.17714570462703705,-0.61481773853302
1772740710069613600,3.616613525390625,-0.7249229550361633,0.19501298666000366,-0.3918585181236267
1772740710088373000,3.635373046875,-0.7418739795684814,0.4569137394428253,0.037414394319057465
1772740710107158800,3.65415869140625,-0.7069029808044434,0.5464028716087341,0.6920899152755737
1772740710125931300,3.67293115234375,-0.6230642199516296,0.4485146105289459,1.386928677558899
1772740710144691000,3.69169091796875,-0.5117372870445251,0.32634514570236206,1.8522416353225708
1772740710163476500,3.7104765625,-0.349251925945282,0.3199312388896942,2.064816474914551
1772740710182249200,3.729249267578125,-0.15958385169506073,0.4766135811805725,2.244710922241211
1772740710201008600,3.748008544921875,0.014965757727622986,0.6676560640335083,2.3960483074188232
1772740710219794400,3.76679443359375,0.18997350335121155,0.6809419989585876,2.354205369949341
1772740710238567000,3.78556689453125,0.24678228795528412,0.42224815487861633,2.07657527923584
1772740710257326300,3.804326416015625,0.26816195249557495,-0.055739812552928925,1.5237585306167603
1772740710276112100,3.823112060546875,0.3828485310077667,-0.6273401379585266,0.7467607855796814
1772740710294884600,3.841884521484375,0.3775036036968231,-1.2850699424743652,-0.01832541823387146
1772740710313644300,3.860644287109375,0.16966283321380615,-1.6161491870880127,0.24220094084739685
1772740710332429800,3.879429931640625,-0.35566580295562744,-1.6349326372146606,0.3855973184108734
1772740710351202600,3.89820263671875,-0.7893673777580261,-1.3629529476165771,-0.3805578351020813
1772740710369962000,3.9169619140625,-1.1989405155181885,-1.025459885597229,-1.9237107038497925
1772740710388747800,3.935747802734375,-1.5367389917373657,-0.1632489264011383,-2.9991073608398438
1772740710407520300,3.954520263671875,-1.4046432971954346,0.7866185307502747,-2.692614793777466
1772740710426280000,3.973280029296875,-0.8063184022903442,0.9888089895248413,-1.7154117822647095
1772740710445065500,3.9920654296875,-0.2987042963504791,0.342074453830719,-1.0094250440597534
1772740710463838200,4.010838134765625,-0.12675081193447113,-0.3686463236808777,-0.6668924689292908
1772740710482597600,4.02959765625,-0.23945212364196777,-0.5433486104011536,-0.753480076789856
1772740710501383400,4.048383544921875,-0.3784198760986328,-0.1172826737165451,-0.9743013978004456
1772740710520156000,4.067156005859375,-0.42927291989326477,0.3581092059612274,-1.0815050601959229
1772740710538915300,4.085915283203125,-0.40987852215766907,0.5529694557189941,-1.0349279642105103
1772740710557701000,4.104701171875,-0.35413870215415955,0.5239542126655579,-0.7829535007476807
1772740710576473600,4.1234736328125,-0.22280654311180115,0.38193225860595703,-0.4124746024608612
1772740710595233300,4.1422333984375,-0.07437065243721008,0.38422292470932007,-0.047798797488212585
1772740710614018800,4.161018798828125,0.06245913356542587,0.4259132444858551,0.3229855000972748
1772740710632791600,4.17979150390625,0.1656923145055771,0.3382566571235657,0.7035433053970337
1772740710651551000,4.198551025390625,0.22570806741714478,0.15622419118881226,1.0040801763534546
1772740710670336800,4.217336669921875,0.27839362621307373,0.07711946964263916,1.155417561531067
1772740710689109200,4.236109130859375,0.26968905329704285,0.2426590770483017,1.1574028730392456
1772740710707882000,4.254882080078125,0.2408265322446823,0.5373928546905518,1.0602781772613525
1772740710726654500,4.273654541015625,0.1979145109653473,0.8304468393325806,0.8871029615402222
1772740710745427200,4.29242724609375,0.17836740612983704,0.7869240045547485,0.7528692483901978
1772740710764186600,4.3111865234375,0.29885703325271606,0.3268032968044281,0.7873821258544922
1772740710782972400,4.329972412109375,0.5347967743873596,-0.41140562295913696,1.202147364616394
1772740710801745000,4.348744873046875,0.6911736726760864,-1.556591510772705,1.54025137424469
1772740710820504600,4.367504638671875,0.44332239031791687,-2.5533416271209717,1.2255122661590576
1772740710839290000,4.3862900390625,-0.3955236077308655,-2.6886441707611084,-0.059557609260082245
1772740710858062800,4.405062744140625,-1.288429617881775,-1.2920947074890137,-1.8959171772003174
1772740710876822300,4.423822265625,-1.6176762580871582,1.034317135810852,-2.3876492977142334
1772740710895608000,4.442608154296875,-1.1056334972381592,1.9229471683502197,-1.2849172353744507
1772740710914380500,4.461380615234375,-0.3364241421222687,0.7934905886650085,-0.10231691598892212
1772740710933140000,4.480139892578125,-0.05375456064939499,-0.40514445304870605,0.24968381226062775
1772740710951925800,4.49892578125,-0.4931064546108246,-0.6569662094116211,-0.2101314514875412
1772740710970698200,4.5176982421875,-1.0178242921829224,-0.2295258641242981,-1.154348611831665
1772740710989458000,4.5364580078125,-1.1545013189315796,0.10231691598892212,-1.9852535724639893
1772740711008243500,4.555243408203125,-1.0367605686187744,0.17302247881889343,-2.352525472640991
1772740711027016200,4.57401611328125,-0.8903098702430725,0.2244863659143448,-2.2958693504333496
1772740711045789000,4.592788818359375,-0.7944068312644958,0.3865135908126831,-1.705027461051941
1772740711064561400,4.6115615234375,-0.6910209655761719,0.5291464328765869,-0.8060129284858704
1772740711083334000,4.630333984375,-0.5308262705802917,0.34726667404174805,0.0004581354442052543
1772740711102093600,4.649093505859375,-0.3107685446739197,0.2654131352901459,0.59023118019104
1772740711120879000,4.667879150390625,-0.061084724962711334,0.2954973578453064,1.0349279642105103
1772740711139651800,4.68665185546875,0.10185877978801727,0.3509317636489868,1.3095037937164307
1772740711158411300,4.705411376953125,0.12323843687772751,0.4760027229785919,1.4774868488311768
1772740711177197000,4.724197021484375,0.051922015845775604,0.4037700295448303,1.566670536994934
1772740711195969500,4.742969482421875,-0.10659284889698029,0.19119518995285034,1.5891191959381104
1772740711214742300,4.7617421875,-0.25716668367385864,-0.024128466844558716,1.4779449701309204
1772740711233514800,4.7805146484375,-0.3396310806274414,-0.13179029524326324,1.2081031799316406
1772740711252287500,4.79928759765625,-0.4169032573699951,0.04459185153245926,0.6375718116760254
1772740711271047000,4.818046875,-0.46729815006256104,0.4405735731124878,0.014813045971095562
1772740711289832700,4.836832763671875,-0.3617742955684662,0.3840702176094055,-0.014965757727622986
1772740711308605200,4.855605224609375,-0.27625566720962524,-0.5123481154441833,0.7401941418647766
1772740711327364900,4.87436474609375,-0.35856732726097107,-1.2603305578231812,1.1019684076309204
1772740711346150400,4.893150390625,-0.5216635465621948,-1.3354648351669312,0.5453338623046875
1772740711364923100,4.911923095703125,-0.834570050239563,-0.9326110482215881,-0.1450762301683426
1772740711383682600,4.9306826171875,-1.1172395944595337,-0.2739650011062622,-0.80937260389328
1772740711402468400,4.94946826171875,-1.1005940437316895,0.26846736669540405,-1.2873605489730835
1772740711421240800,4.96824072265625,-0.7843278646469116,0.18432316184043884,-1.1024266481399536
1772740711440000500,4.98700048828125,-0.46897798776626587,-0.36574479937553406,-0.7165238261222839
1772740711458786000,5.0057861328125,-0.46454933285713196,-0.7992936372756958,-0.8936695456504822
1772740711477558800,5.024558837890625,-0.6497887969017029,-0.6216897964477539,-1.5495667457580566
1772740711496318200,5.043318115234375,-0.6745280623435974,-0.21990501880645752,-1.651731014251709
1772740711515104000,5.06210400390625,-0.3503209054470062,-0.052990999072790146,-1.022558331489563
1772740711533876500,5.08087646484375,0.021685076877474785,-0.3151971995830536,-0.18157434463500977
1772740711552636000,5.099635986328125,0.30343836545944214,-0.5717530250549316,0.4546230733394623
1772740711571421700,5.118421630859375,0.47676628828048706,-0.474475622177124,0.7154548764228821
1772740711590194200,5.137194091796875,0.5656445622444153,-0.050394900143146515,0.645818293094635
1772740711608953900,5.155953857421875,0.6142069101333618,0.3309265077114105,0.4784461259841919
1772740711627739400,5.174739501953125,0.6221479177474976,0.31473904848098755,0.4947862923145294
1772740711646512000,5.19351220703125,0.5100574493408203,0.05405998229980469,0.7062921524047852
1772740711665284600,5.21228466796875,0.3790307343006134,-0.10766182839870453,1.014006495475769
1772740711684057300,5.231057373046875,0.3542914092540741,-0.2357870489358902,1.3053805828094482
1772740711702829800,5.249829833984375,0.418430358171463,-0.22662433981895447,1.5715572834014893
1772740711721602600,5.2686025390625,0.530062735080719,-0.10369132459163666,1.7235054969787598
1772740711740375300,5.287375244140625,0.5787777900695801,0.06139015033841133,1.7025840282440186
1772740711759147800,5.306147705078125,0.6226060390472412,0.1388150453567505,1.5593403577804565
1772740711777920500,5.32492041015625,0.6171084642410278,0.09147437661886215,1.334854006767273
1772740711796693000,5.34369287109375,0.5951179265975952,-0.03390202298760414,1.0274450778961182
1772740711815465500,5.362465576171875,0.6407787799835205,-0.3649812340736389,0.6076403260231018
1772740711834225200,5.38122509765625,0.7925743460655212,-1.0957072973251343,0.6476507782936096
1772740711853010700,5.4000107421875,0.6074876189231873,-1.8061226606369019,0.7721109390258789
1772740711871783400,5.418783447265625,0.034665580838918686,-1.7259489297866821,-0.353985995054245
1772740711890542800,5.43754296875,-0.846023440361023,-0.548082709312439,-2.2804455757141113
1772740711909328600,5.45632861328125,-1.5000882148742676,0.6920899152755737,-3.390049457550049
1772740711928101000,5.47510107421875,-1.443432092666626,1.165802001953125,-3.0322458744049072
1772740711946860800,5.49386083984375,-0.6867450475692749,1.0407310724258423,-1.7764965295791626
1772740711965646300,5.512646240234375,-0.01175880990922451,0.5842754244804382,-0.5790832042694092
1772740711984419000,5.531419189453125,0.15393351018428802,0.20570281147956848,0.059557609260082245
1772740712003178500,5.550178466796875,0.00519220158457756,0.0784938707947731,0.09590301662683487
1772740712021964300,5.56896435546875,-0.2176143378019333,0.13331741094589233,-0.13301199674606323
1772740712040736800,5.58773681640625,-0.41675055027008057,0.25258535146713257,-0.2895416021347046
1772740712059496400,5.606496337890625,-0.4234698712825775,0.41537612676620483,-0.2695363461971283
1772740712078282000,5.625281982421875,-0.2764083743095398,0.47646087408065796,-0.021685076877474785
1772740712097054700,5.6440546875,-0.15469707548618317,0.4030064642429352,0.37475478649139404
1772740712115814100,5.662814208984375,-0.07330167293548584,0.15912571549415588,0.756381630897522
1772740712134600000,5.681599853515625,0.015271181240677834,-0.032222192734479904,0.9301676750183105
1772740712153372400,5.700372314453125,0.11361759155988693,-0.08521319180727005,0.9361234307289124
1772740712172132000,5.719132080078125,0.15439164638519287,-0.01725643500685692,0.8493831157684326
1772740712190917600,5.737917724609375,0.12064233422279358,0.19959434866905212,0.742637574672699
1772740712209690400,5.7566904296875,0.022906772792339325,0.38009971380233765,0.6891884207725525
1772740712228462800,5.775462890625,-0.07467607408761978,0.4077405333518982,0.6664343476295471
1772740712247235600,5.794235595703125,-0.14125843346118927,0.37475478649139404,0.6186355352401733
1772740712266008000,5.813008056640625,-0.11377029865980148,0.31916770339012146,0.5757235288619995
1772740712284780800,5.83178076171875,0.0925433561205864,0.17897824943065643,0.633448600769043
1772740712303553300,5.85055322265625,0.35505497455596924,0.0328330397605896,0.818840742111206
1772740712322326000,5.869325927734375,0.5847335457801819,-0.25808295607566833,0.8600729703903198
1772740712341085400,5.88808544921875,0.8402203917503357,-1.213906168937683,0.5984776020050049
1772740712359871200,5.906871337890625,0.7788302302360535,-2.3331310749053955,-0.1785201132297516
1772740712378643700,5.925643798828125,0.20249587297439575,-2.6426780223846436,-1.5556752681732178
1772740712397403100,5.944403076171875,-0.543195903301239,-1.3395880460739136,-2.8775486946105957
1772740712416189000,5.96318896484375,-1.0668447017669678,0.3032856583595276,-2.577775478363037
1772740712434961400,5.98196142578125,-0.7704311013221741,0.50196373462677,-1.103342890739441
1772740712453734100,6.000734130859375,0.050394900143146515,-0.33230090141296387,-0.025350160896778107
1772740712472506600,6.019506591796875,0.5903838872909546,-0.1447708010673523,0.09895725548267365
1772740712491279400,6.038279296875,0.6076403260231018,0.3692571818828583,-0.3274141252040863
1772740712510038800,6.057038818359375,0.39827242493629456,0.5340332388877869,-0.5680879354476929
1772740712528824600,6.075824462890625,0.22677704691886902,0.5954233407974243,-0.5358657836914062
1772740712547597000,6.09459716796875,0.15836215019226074,0.7664605975151062,-0.45294323563575745
1772740712566356700,6.113356689453125,0.13576079905033112,0.8864920735359192,-0.26067906618118286
1772740712585142300,6.132142333984375,0.1291942000389099,0.786771297454834,0.08979454636573792
1772740712603915000,6.1509150390625,0.08307522535324097,0.5201364159584045,0.31687700748443604
1772740712622674400,6.16967431640625,0.01847812905907631,0.5140279531478882,0.3101576864719391
1772740712641460200,6.188460205078125,0.04153761267662048,0.7029324769973755,0.1772984117269516
1772740712660232700,6.207232666015625,0.13545538485050201,0.7081246972084045,0.15988926589488983
1772740712678992400,6.225992431640625,0.12400199472904205,0.4527905285358429,0.3683409094810486
1772740712697778000,6.24477783203125,0.12552911043167114,0.19623468816280365,0.5346440672874451
1772740712716550700,6.263550537109375,0.0978882759809494,0.2811424434185028,0.4737120568752289
1772740712735323100,6.2823232421875,0.0018325417768210173,0.6584933400154114,0.2530434727668762
1772740712754095900,6.301095947265625,-0.05497625470161438,0.7270609736442566,0.010231691412627697
1772740712772868400,6.319868408203125,-0.00015271181473508477,0.69651859998703,-0.22570806741714478
1772740712791628000,6.3386279296875,0.15546062588691711,0.488219678401947,-0.2707580327987671
1772740712810413600,6.35741357421875,0.4327852725982666,0.13362284004688263,-0.06719319522380829
1772740712829186300,6.376186279296875,0.5874823331832886,-0.34726667404174805,0.14660334587097168
1772740712847945700,6.39494580078125,0.6117635369300842,-1.1461021900177002,0.34635040163993835
1772740712866731500,6.4137314453125,0.4158342778682709,-2.2459325790405273,0.09666658192873001
1772740712885504000,6.43250390625,-0.056808795779943466,-2.455605983734131,-1.0451596975326538
1772740712904263700,6.451263671875,-0.7742488980293274,-1.443432092666626,-2.4540789127349854
1772740712923049200,6.47004931640625,-1.0760074853897095,0.7488987445831299,-1.8380393981933594
1772740712941822000,6.488822021484375,-0.5399889945983887,2.1217780113220215,0.5474718809127808
1772740712960581400,6.507581298828125,0.4005630910396576,1.4199144840240479,2.070772171020508
1772740712979367200,6.5263671875,1.074633002281189,0.6992673873901367,1.8333053588867188
1772740712998139600,6.5451396484375,1.0717315673828125,0.6461237072944641,0.6757497787475586
1772740713016899000,6.563899169921875,0.6233696341514587,0.6571189165115356,-0.4378247857093811
1772740713035684900,6.582684814453125,0.10216420143842697,0.42698222398757935,-0.9495620727539062
1772740713054457300,6.601457275390625,-0.2229592502117157,0.18905723094940186,-0.989267110824585
1772740713073217000,6.620217041015625,-0.30633988976478577,0.1247655525803566,-0.8270871639251709
1772740713092002600,6.63900244140625,-0.30191126465797424,-0.006108472589403391,-0.5564818382263184
1772740713110775300,6.657775390625,-0.30740886926651,0.03405473381280899,-0.2990097403526306
1772740713129534700,6.67653466796875,-0.30007871985435486,0.21242213249206543,-0.09910997003316879
1772740713148320500,6.695320556640625,-0.2644968628883362,0.16004198789596558,0.12781979143619537
1772740713167093000,6.714093017578125,-0.22479179501533508,0.006108472589403391,0.36039987206459045
1772740713185852700,6.732852783203125,-0.18310146033763885,-0.001374406274408102,0.5351021885871887
1772740713204638200,6.75163818359375,-0.15683503448963165,-0.06795676052570343,0.6390989422798157
1772740713223411000,6.770410888671875,-0.16599774360656738,-0.08261708915233612,0.6673506498336792
1772740713242183400,6.789183349609375,-0.11285403370857239,-0.012827792204916477,0.6629219651222229
1772740713260956200,6.8079560546875,-0.061084724962711334,-0.07925742864608765,0.6951441764831543
1772740713279728600,6.826728759765625,-0.060932014137506485,-0.13866232335567474,0.7450809478759766
1772740713298501400,6.84550146484375,-0.033443886786699295,-0.1963873952627182,0.7566870450973511
1772740713317273900,6.86427392578125,0.03374931216239929,-0.42698222398757935,0.6804838180541992
1772740713336046600,6.883046630859375,0.20539739727973938,-0.913369357585907,0.3990359604358673
1772740713354806000,6.901805908203125,0.1510319858789444,-1.5572023391723633,-0.34405970573425293
1772740713373591800,6.920591796875,-0.2808370292186737,-1.619966983795166,-1.6111096143722534
1772740713392364300,6.9393642578125,-0.9642223715782166,-0.24617144465446472,-2.6945998668670654
1772740713411124000,6.9581240234375,-1.1899304389953613,0.9210049510002136,-2.76820707321167
1772740713429909500,6.976909423828125,-0.7310314774513245,0.6392516493797302,-1.5356700420379639
1772740713448682200,6.99568212890625,-0.30007871985435486,0.013133215717971325,-0.23166382312774658
1772740713467454700,7.014454833984375,-0.01252236869186163,0.05772506445646286,0.3179459869861603
1772740713486227500,7.0332275390625,0.12339114397764206,0.37475478649139404,0.164165198802948
1772740713505000000,7.052,0.033443886786699295,0.6676560640335083,-0.010842538438737392
1772740713523759600,7.070759521484375,-0.15378080308437347,0.6193991303443909,0.053143709897994995
1772740713542545200,7.089545166015625,-0.24449162185192108,0.4271349310874939,0.20707722008228302
1772740713561318000,7.10831787109375,-0.1766875684261322,0.32726141810417175,0.275186687707901
1772740713580077300,7.127077392578125,-0.07238540053367615,0.37200596928596497,0.18646112084388733
1772740713598863000,7.145863037109375,-0.0584886260330677,0.3972034156322479,0.1247655525803566
1772740713617635600,7.164635498046875,-0.01252236869186163,0.27350685000419617,0.18585027754306793
1772740713636395000,7.18339501953125,0.07116370648145676,0.18661384284496307,0.27656111121177673
1772740713655180800,7.202180908203125,0.13957859575748444,0.11499200016260147,0.4030064642429352
1772740713673953300,7.220953369140625,0.20066332817077637,0.028251685202121735,0.5723638534545898
1772740713692726000,7.23972607421875,0.2573194205760956,0.11056335270404816,0.659562349319458
1772740713711498500,7.25849853515625,0.33856210112571716,0.1850867122411728,0.749204158782959
1772740713730271200,7.277271240234375,0.3837648034095764,0.1391204595565796,0.8472451567649841
1772740713749043700,7.296043701171875,0.3533751368522644,0.07055285573005676,0.8955020904541016
1772740713767816400,7.31481640625,0.24342262744903564,0.08780929446220398,0.7565343379974365
1772740713786589000,7.3335888671875,0.1572931706905365,0.19623468816280365,0.5322006940841675
1772740713805348600,7.3523486328125,0.18585027754306793,0.19898349046707153,0.3605526089668274
1772740713824134100,7.371134033203125,0.27625566720962524,-0.06047387793660164,0.3480302393436432
1772740713842907000,7.389906982421875,0.25258535146713257,-0.32008397579193115,0.4766135811805725
1772740713861666300,7.408666259765625,0.03130592033267021,-0.8504521250724792,0.372464120388031
1772740713880452000,7.4274521484375,-0.2826695740222931,-1.5759859085083008,-0.265718549489975
1772740713899224600,7.446224609375,-0.6252021789550781,-1.1242643594741821,-1.4005200862884521
1772740713917984300,7.464984375,-0.8582404255867004,0.0016798300202935934,-1.6477605104446411
1772740713936769800,7.483769775390625,-0.8075400590896606,0.3978142738342285,-0.7324058413505554
1772740713955542500,7.50254248046875,-0.5444176197052002,0.7209524512290955,0.004734066314995289
1772740713974302000,7.521302001953125,-0.10873081535100937,0.940857470035553,0.21562908589839935
1772740713993087700,7.540087646484375,0.2098260372877121,0.7409577369689941,0.0856713280081749
1772740714011860200,7.558860107421875,0.23425991833209991,0.5328115224838257,-0.2658712565898895
1772740714030620000,7.577619873046875,0.028557108715176582,0.3342861533164978,-0.7731798887252808
1772740714049405400,7.596405517578125,-0.16309621930122375,0.1710372269153595,-1.1288456916809082
1772740714068178200,7.61517822265625,-0.20341213047504425,0.2166980654001236,-1.0931111574172974
1772740714086937600,7.6339375,-0.10262233763933182,0.164165198802948,-0.7224795818328857
1772740714105723400,7.652723388671875,-0.029626091942191124,-0.05635065957903862,-0.12018419802188873
1772740714124496000,7.671495849609375,-0.11056335270404816,-0.12934690713882446,0.4106420576572418
1772740714143255600,7.690255615234375,-0.17027367651462555,-0.072843536734581,0.788451075553894
1772740714162041000,7.709041015625,-0.12018419802188873,0.0725381150841713,0.9746068120002747
1772740714180813800,7.727813720703125,0.0018325417768210173,0.3014531135559082,1.0651649236679077
1772740714199573200,7.7465732421875,0.17088451981544495,0.36696648597717285,1.2467392683029175
1772740714218359000,7.765359130859375,0.3064926266670227,0.26342788338661194,1.5049749612808228
1772740714237131500,7.784131591796875,0.26999449729919434,0.19715094566345215,1.6294350624084473
1772740714255904300,7.802904296875,0.1435490995645523,0.2095206081867218,1.5573550462722778
1772740714274676700,7.8216767578125,0.07345438003540039,0.17180079221725464,1.4793193340301514
1772740714293449500,7.840449462890625,0.0978882759809494,-0.05604523420333862,1.3455437421798706
1772740714312222000,7.859221923828125,0.09483403712511063,-0.20631365478038788,1.0045382976531982
1772740714330994400,7.877994384765625,0.10017894953489304,-0.44393324851989746,0.4894413650035858
1772740714349767200,7.89676708984375,0.04886778071522713,-0.638029932975769,-0.00916270911693573
1772740714368526600,7.915526611328125,-0.20555010437965393,-0.9662076234817505,-0.3264978528022766
1772740714387312400,7.9343125,-0.6583406329154968,-1.5327684879302979,-1.178629755973816
1772740714406084900,7.9530849609375,-1.1891669034957886,-1.3192774057388306,-2.377722978591919
1772740714424844500,7.971844482421875,-1.4487769603729248,-0.183865025639534,-2.9875011444091797
1772740714443630000,7.990630126953125,-1.137092113494873,0.6218425035476685,-2.288386583328247
1772740714462402800,8.00940283203125,-0.5213581323623657,0.5135698318481445,-0.8322793841362
1772740714481162200,8.028162353515626,-0.0038177953101694584,-0.16340164840221405,0.22479179501533508
1772740714499948000,8.046947998046875,0.23914669454097748,-0.37444937229156494,0.2757975459098816
1772740714518720500,8.065720458984375,0.25029465556144714,0.0456608310341835,-0.2438807636499405
1772740714537480200,8.084480224609376,0.14690876007080078,0.42606595158576965,-0.7024743556976318
1772740714556265700,8.103265625,-0.03573456406593323,0.5160132050514221,-0.8225058317184448
1772740714575038500,8.12203857421875,-0.16248537600040436,0.3790307343006134,-0.6781931519508362
1772740714593798000,8.1407978515625,-0.23196925222873688,0.2348707765340805,-0.4828747510910034
1772740714612583700,8.159583740234375,-0.24464432895183563,0.31122666597366333,-0.31534990668296814
1772740714631356200,8.178356201171875,-0.1629435122013092,0.5373928546905518,-0.1638597846031189
1772740714650115800,8.19711572265625,-0.06902574002742767,0.5851916670799255,-0.027946261689066887
1772740714668901400,8.2159013671875,-0.037108972668647766,0.33474430441856384,0.13652436435222626
1772740714687674000,8.234674072265625,-0.08994726091623306,-0.023975754156708717,0.3026748299598694
1772740714706433500,8.25343359375,-0.11911521852016449,-0.10644013434648514,0.4349232614040375
1772740714725219300,8.27221923828125,-0.05619794875383377,-0.010842538438737392,0.5589252710342407
1772740714743991800,8.29099169921875,0.1304158866405487,0.12094775587320328,0.6963658928871155
1772740714762751500,8.30975146484375,0.3637595474720001,0.04184303805232048,0.8892409205436707
1772740714781537000,8.328537109375,0.45111069083213806,-0.1916533261537552,1.0501991510391235
1772740714800309800,8.347309814453125,0.4030064642429352,-0.24525517225265503,1.047450304031372
1772740714819082200,8.366082275390625,0.28877803683280945,-0.26724568009376526,0.9295567870140076
1772740714837855000,8.38485498046875,0.17958909273147583,-0.3564293682575226,0.8258655071258545
1772740714856627500,8.40362744140625,0.18691925704479218,-0.3558185398578644,0.7547017931938171
1772740714875387100,8.42238720703125,0.20280128717422485,-0.6317687630653381,0.6192464232444763
1772740714894172700,8.441172607421874,0.20005246996879578,-1.176186442375183,0.7029324769973755
1772740714912945400,8.4599453125,-0.03894151374697685,-1.5790401697158813,0.38956785202026367
1772740714931704800,8.478704833984375,-0.5702258944511414,-1.082115888595581,-1.156028389930725
1772740714950490600,8.49749072265625,-1.0636377334594727,0.03451287001371384,-2.5295186042785645
1772740714969263000,8.51626318359375,-1.1409099102020264,0.9549070000648499,-2.2845687866210938
1772740714988022800,8.535022705078125,-1.012479305267334,1.1512943506240845,-1.0726478099822998
1772740715006808300,8.553808349609374,-0.927724301815033,0.7215633392333984,-0.305576354265213
1772740715025581000,8.5725810546875,-0.9359707236289978,0.2495311051607132,-0.41888850927352905
1772740715044340500,8.591340576171875,-0.7939487099647522,-0.010078979656100273,-0.9701781868934631
1772740715063126300,8.610126220703124,-0.5476245880126953,-0.07681404054164886,-1.3713520765304565
1772740715081898800,8.628898681640624,-0.3692571818828583,-0.20249587297439575,-1.2780451774597168
1772740715100658400,8.647658447265625,-0.23655059933662415,-0.49173203110694885,-0.8367080092430115
1772740715119444000,8.66644384765625,-0.05085303261876106,-0.5835118293762207,-0.36131614446640015
1772740715138216700,8.685216796875,0.15118469297885895,-0.3993414044380188,-0.026571854948997498
1772740715156976000,8.70397607421875,0.2367033064365387,-0.182643324136734,0.27533939480781555
1772740715175762000,8.722761962890624,0.17806197702884674,-0.026571854948997498,0.5245651006698608
1772740715194534400,8.741534423828124,0.08292251825332642,0.10582929104566574,0.6662816405296326
1772740715213294000,8.760294189453125,-0.02886253222823143,0.25319617986679077,0.7490514516830444
1772740715232079600,8.77907958984375,-0.10628741979598999,0.27411770820617676,0.8742751479148865
1772740715250852400,8.797852294921874,-0.15973655879497528,-0.01175880990922451,1.143964171409607
1772740715269611800,8.81661181640625,-0.21853061020374298,-0.4900522232055664,1.4518312215805054
1772740715288397600,8.8353974609375,-0.30007871985435486,-0.8040276765823364,1.632794737815857
1772740715307170000,8.854170166015624,-0.39414918422698975,-0.7713474035263062,1.511541485786438
1772740715325929700,8.8729296875,-0.4237752854824066,-0.46134239435195923,1.1100621223449707
1772740715344715300,8.89171533203125,-0.3978142738342285,-0.11942064017057419,0.6468872427940369
1772740715363488000,8.910488037109374,-0.31626617908477783,-0.07024743407964706,0.29977330565452576
1772740715382247400,8.929247314453125,-0.10308047384023666,-0.6229115128517151,0.2933593988418579
1772740715401033200,8.948033203125,-0.21303297579288483,-1.6042375564575195,0.06856760382652283
1772740715419805700,8.9668056640625,-0.7142331600189209,-1.9169913530349731,-1.1233481168746948
1772740715438565400,8.9855654296875,-0.9655967950820923,-0.5885513424873352,-2.184237003326416
1772740715457351000,9.004350830078126,-0.6949914693832397,0.45828816294670105,-1.5564388036727905
1772740715476123600,9.02312353515625,-0.22158484160900116,0.49234288930892944,-0.0925433561205864
1772740715494883000,9.041883056640625,-0.08551861345767975,0.3310792148113251,0.858393132686615
1772740715513668900,9.0606689453125,-0.03542914241552353,0.2351761907339096,0.9549070000648499
1772740715532441300,9.07944140625,0.09071081876754761,0.21425467729568481,0.4408790171146393
1772740715551201000,9.098200927734375,0.05497625470161438,0.2916795611381531,-0.2348707765340805
1772740715569986600,9.116986572265626,-0.08918370306491852,0.3029802441596985,-0.7473716139793396
1772740715588759300,9.13575927734375,-0.16615045070648193,0.20631365478038788,-1.0489774942398071
1772740715607518700,9.154518798828125,-0.1626380831003189,0.1713426560163498,-1.2284138202667236
1772740715626304500,9.173304443359376,-0.14141114056110382,0.29748260974884033,-1.330578088760376
1772740715645077000,9.192076904296876,-0.06200099736452103,0.483485609292984,-1.2230689525604248
1772740715663836700,9.210836669921875,0.011300674639642239,0.5248705148696899,-0.7600467205047607
1772740715682622200,9.229622314453126,0.04092676565051079,0.3727695345878601,-0.18432316184043884
1772740715701395000,9.24839501953125,0.11254860460758209,0.14767232537269592,0.27060532569885254
1772740715720154400,9.267154296875,0.26464956998825073,0.12934690713882446,0.5792359113693237
1772740715738940200,9.285940185546876,0.42392799258232117,0.2160872220993042,0.8315158486366272
1772740715757712600,9.304712646484376,0.5479300022125244,0.23105297982692719,1.0424108505249023
1772740715776485400,9.3234853515625,0.6328377723693848,0.1447708010673523,1.1677871942520142
1772740715795257900,9.3422578125,0.6804838180541992,0.04550812020897865,1.1641221046447754
1772740715814030600,9.361030517578126,0.629172682762146,0.08735115826129913,0.9985825419425964
1772740715832790000,9.3797900390625,0.5636593103408813,0.21440738439559937,0.8043331503868103
1772740715851575800,9.398575927734376,0.5441122055053711,0.13530266284942627,0.6449019908905029
1772740715870348300,9.417348388671876,0.4497362971305847,-0.19883078336715698,0.5302154421806335
1772740715889108000,9.43610791015625,0.24601873755455017,-0.7640172243118286,0.3739912211894989
1772740715907893500,9.4548935546875,0.1313321590423584,-1.5231475830078125,0.6126797795295715
1772740715926666200,9.473666259765626,0.10781454294919968,-1.9321098327636719,0.7235485911369324
1772740715945425700,9.49242578125,0.2593046724796295,-1.5901881456375122,0.03924693539738655
1772740715964211500,9.51121142578125,0.3229855000972748,-0.7137750387191772,-1.1712995767593384
1772740715982984000,9.52998388671875,0.16340164840221405,0.5236487984657288,-1.7896296977996826
1772740716001743600,9.54874365234375,-0.11392301321029663,1.2216944694519043,-1.489856481552124
1772740716020529200,9.567529052734375,-0.19531841576099396,1.0469921827316284,-0.8779402375221252
1772740716039302000,9.586302001953126,-0.14736689627170563,0.7571451663970947,-0.4337015450000763
1772740716058061300,9.605061279296875,-0.03420744836330414,0.4462239146232605,-0.3901786804199219
1772740716076847000,9.62384716796875,0.12247487902641296,0.13927318155765533,-0.9770501852035522
1772740716095619600,9.64261962890625,0.13973131775856018,0.08750387281179428,-2.0900139808654785
1772740716114392300,9.661392333984375,0.022754060104489326,0.38254308700561523,-2.7084968090057373
1772740716133164800,9.680164794921875,0.09498675167560577,0.3443651497364044,-2.389481782913208
1772740716151937500,9.6989375,0.24937839806079865,-0.06322269141674042,-1.354095697402954
1772740716170697000,9.717697021484375,0.19684553146362305,-0.28541839122772217,-0.28938889503479004
1772740716189482800,9.736482666015625,-0.019394399598240852,-0.4750864505767822,0.5940489768981934
1772740716208255200,9.755255126953125,-0.11086877435445786,-0.3171824514865875,0.9991934299468994
1772740716227015000,9.774014892578125,-0.031000498682260513,-0.15118469297885895,0.8011261820793152
1772740716245800400,9.792800537109375,0.14202198386192322,-0.06765133142471313,0.241742804646492
1772740716264573200,9.8115732421875,0.2777827978134155,0.19150061905384064,-0.10109522193670273
1772740716283346000,9.830345947265625,0.20631365478038788,0.5341859459877014,0.1328592747449875
1772740716302118400,9.849118408203125,0.05024218559265137,0.5972558856010437,0.6108472347259521
1772740716320891100,9.86789111328125,-0.00015271181473508477,0.3752129375934601,1.076160192489624
1772740716339663600,9.88666357421875,0.02993151545524597,0.36360684037208557,1.2603305578231812
