time,seconds_elapsed,z,y,x
1772740787544702500,0.277702392578125,1.3943700790405273,-1.020216941833496,0.40552741289138794
1772740787563475000,0.296474853515625,2.2350664138793945,-0.702831506729126,0.5866732001304626
1772740787582247400,0.315247314453125,3.3615236282348633,-0.2503175735473633,0.7397188544273376
1772740787601019600,0.33401953125,4.547152519226074,-0.15178227424621582,0.9968060255050659
1772740787619792100,0.352792236328125,5.270713806152344,-0.49403679370880127,1.334972620010376
1772740787638564400,0.371564453125,5.311610221862793,-1.0722708702087402,1.6252214908599854
1772740787657336800,0.3903369140625,4.182373046875,-1.4307515621185303,1.471815586090088
1772740787676096000,0.409095947265625,1.9262571334838867,-1.351468801498413,1.0901010036468506
1772740787694881500,0.427881591796875,-0.6273117065429688,-1.013460636138916,0.9268208742141724
1772740787713654000,0.446654052734375,-2.526491165161133,-0.3869918882846832,0.9475469589233398
1772740787732413200,0.4654130859375,-3.404865264892578,0.47968828678131104,1.0241297483444214
1772740787751198700,0.48419873046875,-3.2826309204101562,1.1935046911239624,1.323786735534668
1772740787769971000,0.502970947265625,-2.0641136169433594,1.5757166147232056,1.5352007150650024
1772740787788730400,0.52173046875,-0.5373744964599609,1.3225816488265991,1.7809875011444092
1772740787807515600,0.540515625,0.7324790954589844,0.6588059663772583,1.752339243888855
1772740787826288000,0.5592880859375,1.3787603378295898,-0.2947150468826294,1.4574611186981201
1772740787845060600,0.578060546875,0.9413928985595703,-1.1973941326141357,1.0531284809112549
1772740787863832800,0.596832763671875,-0.11158561706542969,-1.5259473323822021,0.6578688025474548
1772740787882605300,0.615605224609375,-1.330367088317871,-1.2851672172546387,0.3134951889514923
1772740787901364500,0.634364501953125,-2.228576183319092,-0.875959038734436,0.20312434434890747
1772740787920150000,0.65314990234375,-2.1206064224243164,-0.3620586395263672,0.21068577468395233
1772740787938922500,0.671922607421875,-1.5195112228393555,-0.10870647430419922,0.36651378870010376
1772740787957694700,0.69069482421875,-0.7809104919433594,-0.09812784194946289,0.39588993787765503
1772740787976467000,0.709467041015625,-0.43811511993408203,-0.329831600189209,0.3884696662425995
1772740787995239400,0.728239501953125,-0.4130392074584961,-0.5208530426025391,0.2996616065502167
1772740788014012000,0.747011962890625,-0.5064725875854492,-0.5644372701644897,0.2949516773223877
1772740788032784100,0.7657841796875,-0.8323259353637695,-0.30096304416656494,0.2555863857269287
1772740788051584500,0.78458447265625,-1.0057048797607422,0.2382570505142212,0.2777783274650574
1772740788070328800,0.803328857421875,-1.0364055633544922,0.676260232925415,0.34294864535331726
1772740788089101300,0.822101318359375,-0.9619178771972656,0.7545204162597656,0.2610417902469635
1772740788107873500,0.84087353515625,-0.913548469543457,0.582636833190918,0.20796135067939758
1772740788126646000,0.85964599609375,-0.7494516372680664,0.5734114646911621,0.153900146484375
1772740788145418200,0.878418212890625,-0.3006000518798828,0.6562079191207886,0.27939704060554504
1772740788164190700,0.897190673828125,0.24535846710205078,0.7675637006759644,0.48496273159980774
1772740788182963200,0.915963134765625,0.777613639831543,0.9186917543411255,0.6127057075500488
1772740788201735400,0.9347353515625,1.0836706161499023,1.2229199409484863,0.5491911768913269
1772740788220508000,0.9535078125,0.9750442504882812,1.4104007482528687,0.48100516200065613
1772740788239280000,0.972280029296875,1.5570745468139648,1.5127346515655518,0.6244162321090698
1772740788258052600,0.991052490234375,2.6444311141967773,1.363396406173706,0.7495471835136414
1772740788276824800,1.009824951171875,3.8068180084228516,1.1290825605392456,0.7655551433563232
1772740788295584300,1.028584228515625,4.502025604248047,0.5434925556182861,0.826351523399353
1772740788314369500,1.04736962890625,4.423491477966309,-0.04997575283050537,0.7529212236404419
1772740788333142000,1.06614208984375,3.37772274017334,-0.4325065612792969,0.4900338649749756
1772740788351901200,1.084901123046875,1.8770217895507812,-0.6412192583084106,0.43490269780158997
1772740788370686700,1.103686767578125,0.41287899017333984,-0.576464056968689,0.3839954435825348
1772740788389459000,1.122458984375,-0.9260644912719727,-0.48379087448120117,0.26547884941101074
1772740788408218400,1.14121826171875,-1.8447837829589844,-0.4792754650115967,0.2698148488998413
1772740788427004000,1.16000390625,-2.2356510162353516,-0.39551496505737305,0.20956140756607056
1772740788445776100,1.178776123046875,-2.04428768157959,-0.14882445335388184,0.19202947616577148
1772740788464548600,1.197548583984375,-1.2459726333618164,0.005620241165161133,0.3645859658718109
1772740788483320800,1.21632080078125,-0.3428382873535156,-0.17348933219909668,0.62165766954422
1772740788502093300,1.23509326171875,0.39394187927246094,-0.47188591957092285,0.7695647478103638
1772740788520852500,1.2538525390625,1.3824453353881836,-0.7203094959259033,0.7293117046356201
1772740788539638000,1.272637939453125,1.937906265258789,-1.3682188987731934,0.7035931944847107
1772740788558410200,1.29141015625,1.5962333679199219,-2.0008857250213623,0.6210583448410034
1772740788577182700,1.3101826171875,0.5484294891357422,-2.0623397827148438,0.37881359457969666
1772740788595955000,1.328954833984375,-0.7638683319091797,-1.8536157608032227,0.18946895003318787
1772740788614727400,1.3477275390625,-1.9163613319396973,-1.6453382968902588,0.12427553534507751
1772740788633486600,1.366486572265625,-2.645292282104492,-1.3828942775726318,0.028563201427459717
1772740788652272000,1.385272216796875,-2.803532123565674,-1.1484171152114868,0.00722658634185791
1772740788671044400,1.40404443359375,-2.644347667694092,-0.9963538646697998,0.05395382642745972
1772740788689816800,1.42281689453125,-2.2251195907592773,-0.9042148590087891,0.17270994186401367
1772740788708589000,1.441589111328125,-1.8492374420166016,-0.8245494365692139,0.2189069390296936
1772740788727361500,1.460361572265625,-1.5589404106140137,-0.8605990409851074,0.21163025498390198
1772740788746133800,1.4791337890625,-1.466376781463623,-1.0221563577651978,0.18760579824447632
1772740788764906200,1.49790625,-1.3192567825317383,-1.1603999137878418,0.1193157434463501
1772740788783678700,1.5166787109375,-0.9805383682250977,-1.1027647256851196,0.08951282501220703
1772740788802451000,1.535450927734375,-0.5015029907226562,-0.9883089065551758,0.24757233262062073
1772740788821223400,1.554223388671875,-0.17982006072998047,-0.8534282445907593,0.4899963140487671
1772740788839995600,1.57299560546875,0.28102874755859375,-0.6277146339416504,0.6921599507331848
1772740788858768100,1.59176806640625,0.8373517990112305,-0.43125128746032715,0.6751581430435181
1772740788877540400,1.610540283203125,0.9566812515258789,-0.1967780590057373,0.5496756434440613
1772740788896312800,1.629312744140625,1.1072721481323242,-0.11054515838623047,0.5882632732391357
1772740788915085000,1.6480849609375,1.464674949645996,0.19049835205078125,0.576645016670227
1772740788933857500,1.666857421875,1.868795394897461,0.34489595890045166,0.6549289226531982
1772740788952629800,1.685629638671875,2.2752304077148438,0.08424222469329834,0.7852122783660889
1772740788971402200,1.70440234375,2.3436412811279297,-0.4623361825942993,0.8467763662338257
1772740788990174500,1.723174560546875,2.0070600509643555,-0.9024486541748047,0.6858466863632202
1772740789008947000,1.741947021484375,0.9898681640625,-0.9725080728530884,0.430470734834671
1772740789027706000,1.7607060546875,-0.4682140350341797,-0.7630895376205444,0.28477898240089417
1772740789046491600,1.77949169921875,-1.7383995056152344,-0.32211267948150635,0.22325676679611206
1772740789065263900,1.798263916015625,-2.236565113067627,0.16323363780975342,0.37560081481933594
1772740789084036400,1.817036376953125,-2.0387773513793945,0.591771125793457,0.6901586055755615
1772740789102808600,1.83580859375,-0.9899568557739258,0.9381670951843262,1.0974106788635254
1772740789121581000,1.8545810546875,0.5084915161132812,0.7978588342666626,1.4799726009368896
1772740789140340200,1.87334033203125,1.9352226257324219,0.21099591255187988,1.7465159893035889
1772740789159125800,1.892125732421875,2.6151275634765625,-0.40901410579681396,1.7024316787719727
1772740789177898000,1.91089794921875,2.2400388717651367,-1.07559335231781,1.4959921836853027
1772740789196670500,1.92967041015625,1.0946455001831055,-1.418350338935852,1.3308558464050293
1772740789215442700,1.948442626953125,-0.539341926574707,-1.0146982669830322,0.9810652136802673
1772740789234215200,1.967215087890625,-1.6091299057006836,-0.3782144784927368,0.8394179940223694
1772740789252987600,1.985987548828125,-1.7974529266357422,0.17843639850616455,0.9027798771858215
1772740789271760000,2.004759765625,-1.724226951599121,0.5997600555419922,1.0222547054290771
1772740789290532000,2.023531982421875,-1.3992652893066406,0.8659576177597046,1.1063220500946045
1772740789309304600,2.0423046875,-0.9345178604125977,0.7382285594940186,1.139466643333435
1772740789328077000,2.0610771484375,-0.5126762390136719,0.4670078754425049,1.1072317361831665
1772740789346849300,2.079849365234375,-0.28780651092529297,0.28993451595306396,1.0687319040298462
1772740789365621800,2.098621826171875,0.050800323486328125,0.4268289804458618,1.0422788858413696
1772740789384394000,2.11739404296875,0.1683673858642578,0.5611183047294617,1.0861973762512207
1772740789403166500,2.13616650390625,0.03399848937988281,0.7859798073768616,1.0152705907821655
1772740789421938700,2.154938720703125,-0.20206642150878906,0.8456774950027466,1.0110459327697754
1772740789440711200,2.173711181640625,-0.25618457794189453,0.9209628105163574,0.9788459539413452
1772740789459483400,2.1924833984375,-0.15207386016845703,0.9226099848747253,0.9865899682044983
1772740789478255900,2.211255859375,0.1301136016845703,0.8456677794456482,0.9835399985313416
1772740789497028000,2.230028076171875,0.5100517272949219,0.6870519518852234,1.0392566919326782
1772740789515800600,2.248800537109375,0.8002815246582031,0.5333535671234131,1.0742847919464111
1772740789534572800,2.26757275390625,0.3480396270751953,0.6451312303543091,0.7603664398193359
1772740789553345300,2.28634521484375,-0.044768333435058594,0.7137610912322998,0.62052321434021
1772740789572117500,2.305117431640625,0.4812049865722656,0.7051764726638794,0.975408136844635
1772740789590877000,2.323876953125,2.1542186737060547,0.8098881244659424,1.2184438705444336
1772740789609662200,2.342662109375,3.5161962509155273,0.34564894437789917,1.1876986026763916
1772740789628434700,2.3614345703125,3.511103630065918,-0.638680636882782,1.1147160530090332
1772740789647207000,2.38020703125,2.3548173904418945,-1.3611164093017578,1.0272177457809448
1772740789665979400,2.3989794921875,0.9391107559204102,-0.8912196159362793,0.937706470489502
1772740789684752000,2.417751953125,0.02675914764404297,-0.27381694316864014,0.9964607954025269
1772740789703524000,2.436524169921875,-0.5465459823608398,-0.08234310150146484,1.2005349397659302
1772740789722296300,2.45529638671875,-1.0411014556884766,-0.14948046207427979,1.2243638038635254
1772740789741068800,2.47406884765625,-1.275620460510254,-0.2956504821777344,1.1762089729309082
1772740789759841300,2.49284130859375,-0.8809700012207031,-0.40665125846862793,1.2588094472885132
1772740789778613500,2.511613525390625,0.009959220886230469,-0.5148818492889404,1.5249930620193481
1772740789797386000,2.530385986328125,1.1015129089355469,-0.8041058778762817,1.8154847621917725
1772740789816158200,2.549158203125,1.8863496780395508,-1.0696802139282227,1.8714042901992798
1772740789834930700,2.5679306640625,2.0884361267089844,-1.419956922531128,1.7921319007873535
1772740789853703000,2.586702880859375,1.744359016418457,-1.914326548576355,1.7124625444412231
1772740789872475400,2.605475341796875,0.7126140594482422,-2.197000503540039,1.6164566278457642
1772740789891247600,2.62424755859375,-0.37111949920654297,-1.874599575996399,1.4978581666946411
1772740789910020000,2.64302001953125,-1.2872209548950195,-1.4946775436401367,1.5073286294937134
1772740789928792300,2.661792236328125,-1.8781723976135254,-0.9824082851409912,1.6495460271835327
1772740789947564800,2.680564697265625,-1.9876623153686523,-0.30100393295288086,1.8004039525985718
1772740789966337000,2.6993369140625,-1.996840476989746,0.029894113540649414,1.868359088897705
1772740789985109500,2.718109619140625,-1.8455686569213867,-0.03812575340270996,1.8773452043533325
1772740790003881700,2.7368818359375,-1.4572868347167969,-0.3527876138687134,1.9753835201263428
1772740790022654200,2.755654296875,-0.9154939651489258,-0.6090643405914307,2.0990965366363525
1772740790041426400,2.774426513671875,-0.46526050567626953,-0.5328123569488525,2.100966215133667
1772740790060199000,2.793198974609375,-0.23865127563476562,-0.498299241065979,2.003075122833252
1772740790078971100,2.81197119140625,-0.09642791748046875,-0.5421626567840576,1.8028264045715332
1772740790097743600,2.83074365234375,0.11328697204589844,-0.7255665063858032,1.6028958559036255
1772740790116516000,2.84951611328125,0.5056219100952148,-0.9889034032821655,1.4256032705307007
1772740790135288300,2.868288330078125,0.7466650009155273,-1.2146403789520264,1.1746004819869995
1772740790154060500,2.887060546875,0.8195610046386719,-1.5376043319702148,1.0453970432281494
1772740790172833000,2.9058330078125,1.2133102416992188,-1.6980712413787842,0.9696065783500671
1772740790191605500,2.92460546875,1.2114896774291992,-1.553238034248352,0.7001458406448364
1772740790210377700,2.943377685546875,0.7652311325073242,-1.5573909282684326,0.5392312407493591
1772740790229150200,2.962150146484375,0.6900634765625,-1.5438778400421143,0.45034030079841614
1772740790247922400,2.98092236328125,1.029250144958496,-1.4721755981445312,0.4059824049472809
1772740790266695000,2.99969482421875,1.34716796875,-1.5099871158599854,0.4054791331291199
1772740790285467100,3.018467041015625,1.3166475296020508,-1.7027212381362915,0.4221007227897644
1772740790304239600,3.037239501953125,1.196451187133789,-1.910905361175537,0.38343995809555054
1772740790323011800,3.05601171875,0.8832588195800781,-2.018162965774536,0.4124343991279602
1772740790341784300,3.074784423828125,0.18389892578125,-1.8888856172561646,0.470159649848938
1772740790360556500,3.093556640625,-0.4760856628417969,-1.457334280014038,0.5382449626922607
1772740790379329000,3.1123291015625,-0.5908441543579102,-1.0227590799331665,0.7226125001907349
1772740790398101200,3.131101318359375,-0.5027046203613281,-0.8007200956344604,0.8916853070259094
1772740790416873700,3.149873779296875,-0.49358081817626953,-0.8089733123779297,0.9928736686706543
1772740790435646000,3.16864599609375,-0.3392782211303711,-0.816940426826477,1.0143201351165771
1772740790454418400,3.18741845703125,-0.18496036529541016,-0.772537112236023,1.0441557168960571
1772740790473190700,3.206190673828125,-0.08935928344726562,-0.6502628326416016,1.0208181142807007
1772740790491963100,3.224963134765625,-0.2177734375,-0.5043243169784546,0.961979329586029
1772740790510735400,3.2437353515625,-0.6088066101074219,-0.28364622592926025,0.8060207366943359
1772740790529507800,3.2625078125,-1.0438117980957031,-0.04601907730102539,0.6007166504859924
1772740790548280000,3.281280029296875,-1.2080373764038086,0.2132185697555542,0.3817124366760254
1772740790567052500,3.300052490234375,-1.160888671875,0.4639773368835449,0.18304578959941864
1772740790585824800,3.31882470703125,-0.9458808898925781,0.7023594379425049,-0.021672263741493225
1772740790604597200,3.33759716796875,-0.6024227142333984,0.811348557472229,-0.18854311108589172
1772740790623369700,3.35636962890625,-0.3691558837890625,0.7890652418136597,-0.39938655495643616
1772740790642142000,3.375141845703125,-0.1446056365966797,0.7260345816612244,-0.5843439102172852
1772740790660914200,3.3939140625,0.29292869567871094,0.770813524723053,-0.6224857568740845
1772740790679686700,3.412686767578125,0.5676670074462891,1.2004120349884033,-0.7540640234947205
1772740790698459100,3.431459228515625,0.7431669235229492,1.474816083908081,-0.7570579051971436
1772740790717231400,3.4502314453125,0.7030553817749023,1.4827375411987305,-0.7013428211212158
1772740790736003800,3.46900390625,0.35169410705566406,1.4565811157226562,-0.7456919550895691
1772740790754776000,3.487776123046875,-0.020574569702148438,1.5060889720916748,-0.8243314623832703
1772740790773548500,3.506548583984375,-0.18093299865722656,1.593937635421753,-0.929754376411438
1772740790792320800,3.52532080078125,-0.3796529769897461,1.7175331115722656,-1.102362871170044
1772740790811093200,3.54409326171875,-0.26957225799560547,1.6386163234710693,-1.0544886589050293
1772740790829865500,3.562865478515625,0.5596303939819336,1.341261386871338,-0.7951147556304932
1772740790848638000,3.581637939453125,1.3812923431396484,1.122298240661621,-0.8262593150138855
1772740790867410200,3.60041015625,1.7081451416015625,0.7673900723457336,-0.8293502926826477
1772740790886182700,3.6191826171875,1.3349132537841797,0.590348482131958,-0.8544790744781494
1772740790904955000,3.637954833984375,1.2145357131958008,0.9453686475753784,-0.8146120309829712
1772740790923727400,3.656727294921875,1.7511415481567383,0.8828715682029724,-0.35778525471687317
1772740790942499600,3.67549951171875,2.3564701080322266,0.7672145962715149,-0.031766071915626526
1772740790961272000,3.69427197265625,2.1921138763427734,0.5068784356117249,0.20854690670967102
1772740790980044300,3.713044189453125,1.244990348815918,0.22792363166809082,0.3587399423122406
1772740790998803700,3.7318037109375,-0.25112056732177734,0.22819793224334717,0.34339845180511475
1772740791017589000,3.750589111328125,-1.4234857559204102,0.327985942363739,0.3518103063106537
1772740791036361500,3.769361572265625,-1.9066424369812012,0.5905359983444214,0.3978258967399597
1772740791055134000,3.788134033203125,-1.7141408920288086,0.9179067611694336,0.4797143340110779
1772740791073906200,3.80690625,-1.009596824645996,0.9250843524932861,0.6036006212234497
1772740791092678400,3.825678466796875,-0.09259986877441406,0.6535888910293579,0.6043624877929688
1772740791111451000,3.844450927734375,0.3876619338989258,0.1769472360610962,0.4555487632751465
1772740791130223400,3.863223388671875,-0.05546760559082031,-0.24534571170806885,0.19959238171577454
1772740791148995600,3.88199560546875,-0.9952144622802734,-0.5448282957077026,-0.07655581831932068
1772740791167768000,3.90076806640625,-1.736907958984375,-0.349257230758667,-0.4422823488712311
1772740791186540300,3.919540283203125,-2.1332225799560547,-0.22668206691741943,-0.6161688566207886
1772740791205312800,3.938312744140625,-1.8900094032287598,-0.06416285037994385,-0.7457689046859741
1772740791224085000,3.9570849609375,-1.807055950164795,-0.16124093532562256,-0.7721961140632629
1772740791242857500,3.975857421875,-1.9164037704467773,-0.08840370178222656,-0.9458901882171631
1772740791261629700,3.994629638671875,-1.639174461364746,-0.030457139015197754,-1.1044468879699707
1772740791280402200,4.013402099609375,-1.3030519485473633,-0.2549029588699341,-1.1068193912506104
1772740791299174400,4.03217431640625,-1.2439908981323242,-0.2646493911743164,-1.2605650424957275
1772740791317947000,4.05094677734375,-1.1472015380859375,-0.12399911880493164,-1.3861395120620728
1772740791336719000,4.069718994140625,-0.7457189559936523,0.012656569480895996,-1.4073162078857422
1772740791355491600,4.08849169921875,-0.31835079193115234,0.15160119533538818,-1.4109296798706055
1772740791374263800,4.107263916015625,0.029547691345214844,0.28583335876464844,-1.4761375188827515
1772740791393036300,4.126036376953125,0.3847770690917969,0.37972116470336914,-1.4648008346557617
1772740791411808500,4.14480859375,0.8675727844238281,0.4665029048919678,-1.3311041593551636
1772740791430581000,4.1635810546875,1.3982715606689453,0.5935285091400146,-1.1923928260803223
1772740791449353200,4.182353271484375,1.8206043243408203,0.814315915107727,-1.0983037948608398
1772740791468125700,4.201125732421875,1.6939868927001953,1.0320683717727661,-1.0287448167800903
1772740791486898200,4.219898193359375,1.9041776657104492,1.3107008934020996,-0.8954983353614807
1772740791505670400,4.23867041015625,2.7896766662597656,1.5093905925750732,-0.7349425554275513
1772740791524442600,4.257442626953125,3.686570167541504,1.1705363988876343,-0.4512770175933838
1772740791543215000,4.276215087890625,4.292291641235352,0.6585003137588501,-0.2542046308517456
1772740791561987600,4.294987548828125,4.289159774780273,-0.022913575172424316,-0.16110694408416748
1772740791580759800,4.313759765625,3.1646480560302734,-0.7085279822349548,-0.20636367797851562
1772740791599532300,4.3325322265625,0.7890100479125977,-0.9593359231948853,-0.47004932165145874
1772740791618291500,4.35129150390625,-1.4273595809936523,-0.8605628609657288,-0.5416668057441711
1772740791637077000,4.370076904296875,-2.6714401245117188,-0.5492004156112671,-0.3252916932106018
1772740791655849200,4.38884912109375,-3.002729892730713,-0.1505216360092163,0.034779906272888184
1772740791674621700,4.40762158203125,-2.3678760528564453,0.18090665340423584,0.3376199007034302
1772740791693394000,4.426393798828125,-1.0538883209228516,0.2412424087524414,0.5628945827484131
1772740791712166400,4.44516650390625,0.23745441436767578,-0.15088486671447754,0.5887547731399536
1772740791730938600,4.463938720703125,0.7684869766235352,-0.8282577991485596,0.3997344970703125
1772740791749711000,4.482711181640625,-0.03897380828857422,-1.5502095222473145,0.0020624399185180664
1772740791768483300,4.5014833984375,-1.487234115600586,-1.8302137851715088,-0.35771602392196655
1772740791787242800,4.52024267578125,-2.674532413482666,-1.5917623043060303,-0.6144276857376099
1772740791806028000,4.539028076171875,-3.0232410430908203,-0.904457688331604,-0.6805840134620667
1772740791824800500,4.557800537109375,-2.830197334289551,-0.29112446308135986,-0.5419478416442871
1772740791843572700,4.57657275390625,-2.173659324645996,0.2293848991394043,-0.4008580446243286
1772740791862345200,4.59534521484375,-1.3473825454711914,0.4915618896484375,-0.2007913589477539
1772740791881117400,4.614117431640625,-0.7490091323852539,0.511613130569458,-0.060467302799224854
1772740791899890000,4.632889892578125,-0.29834556579589844,0.41882824897766113,0.042491793632507324
1772740791918662100,4.651662109375,-0.04366493225097656,0.4108198881149292,0.08219027519226074
1772740791937434600,4.6704345703125,0.18467044830322266,0.46571946144104004,0.12893080711364746
1772740791956207000,4.68920703125,0.2796182632446289,0.5702031850814819,0.2029660940170288
1772740791974979300,4.707979248046875,-0.014280319213867188,0.8703047037124634,0.1664595603942871
1772740791993751800,4.726751708984375,-0.42668628692626953,1.207534670829773,0.09777253866195679
1772740792012524000,4.74552392578125,-0.650050163269043,1.2785083055496216,0.12312382459640503
1772740792031296500,4.764296630859375,-0.6766653060913086,1.1850756406784058,0.26070839166641235
1772740792050068700,4.78306884765625,-0.684295654296875,1.263446569442749,0.2594603896141052
1772740792068841200,4.80184130859375,-0.5325641632080078,1.3360027074813843,0.3495156168937683
1772740792087613400,4.820613525390625,-0.14029884338378906,1.3934556245803833,0.4959142208099365
1772740792106386000,4.839385986328125,0.3263721466064453,1.6096123456954956,0.47770315408706665
1772740792125158100,4.858158203125,0.5183048248291016,1.7032877206802368,0.34610360860824585
1772740792143930600,4.8769306640625,0.2333965301513672,1.7051329612731934,0.06492292881011963
1772740792162702800,4.895702880859375,0.33416080474853516,1.7033883333206177,-0.1791163682937622
1772740792181462300,4.914462158203125,1.4480361938476562,1.7437920570373535,-0.19670051336288452
1772740792200247800,4.933247802734375,2.77329158782959,1.7181187868118286,-0.3369547724723816
1772740792219020000,4.95202001953125,4.029065132141113,1.2393393516540527,-0.28684359788894653
1772740792237792300,4.970792236328125,4.486194610595703,0.6388735771179199,-0.28512346744537354
1772740792256564700,4.989564697265625,4.131572723388672,0.17683756351470947,-0.3326494097709656
1772740792275337200,5.008337158203125,3.272247314453125,-0.06359660625457764,-0.3911607265472412
1772740792294096400,5.027096435546875,2.0229310989379883,-0.26083266735076904,-0.39059722423553467
1772740792312882000,5.0458818359375,0.5170507431030273,-0.29547345638275146,-0.4280891716480255
1772740792331654100,5.064654052734375,-0.8771829605102539,-0.21091508865356445,-0.4073605537414551
1772740792350413600,5.08341357421875,-1.7580809593200684,-0.05125463008880615,-0.34793245792388916
1772740792369198800,5.10219873046875,-2.0598487854003906,0.18468141555786133,-0.3829779028892517
1772740792387971300,5.120971435546875,-1.632486343383789,0.2772965431213379,-0.31618732213974
1772740792406743600,5.13974365234375,-0.8101310729980469,0.12319350242614746,-0.24228572845458984
1772740792425516000,5.15851611328125,-0.06962776184082031,-0.12877273559570312,-0.2620546817779541
1772740792444288300,5.177288330078125,0.4700441360473633,-0.45331883430480957,-0.3155508041381836
1772740792463060700,5.196060791015625,0.868255615234375,-0.869766354560852,-0.3044470548629761
1772740792481833000,5.2148330078125,1.084488868713379,-1.2371951341629028,-0.3550448417663574
1772740792500605400,5.23360546875,0.8713874816894531,-1.5530345439910889,-0.45494699478149414
1772740792519378000,5.2523779296875,0.1779165267944336,-1.8352148532867432,-0.5437977313995361
1772740792538150100,5.271150146484375,-0.804163932800293,-1.7087401151657104,-0.7013985514640808
1772740792556922400,5.28992236328125,-1.484426498413086,-1.5172603130340576,-0.7583022713661194
1772740792575694800,5.30869482421875,-1.965484619140625,-1.513065218925476,-0.7201934456825256
1772740792594467300,5.32746728515625,-2.2654571533203125,-1.4753525257110596,-0.7527768611907959
1772740792613239600,5.346239501953125,-2.387451171875,-1.3716312646865845,-0.7719788551330566
1772740792632012000,5.365011962890625,-2.342017650604248,-1.2490980625152588,-0.7583349943161011
1772740792650784300,5.3837841796875,-2.1953091621398926,-1.1616277694702148,-0.7669581174850464
1772740792669556700,5.402556640625,-1.8592724800109863,-1.2375398874282837,-0.7397087216377258
1772740792688329000,5.421328857421875,-1.5882935523986816,-1.2596784830093384,-0.7092717885971069
1772740792707101400,5.440101318359375,-1.4058866500854492,-1.1215533018112183,-0.7137725949287415
1772740792725873700,5.458873779296875,-1.148453712463379,-0.952502965927124,-0.6610817313194275
1772740792744646100,5.477646240234375,-0.8753576278686523,-0.7741091251373291,-0.5722777247428894
1772740792763418400,5.49641845703125,-0.6176729202270508,-0.6150283813476562,-0.4299561381340027
1772740792782190800,5.51519091796875,-0.28287601470947266,-0.25333309173583984,-0.29632681608200073
1772740792800963300,5.53396337890625,0.19986629486083984,0.1463611125946045,-0.17155838012695312
1772740792819735600,5.552735595703125,0.6033515930175781,0.537071704864502,-0.15186583995819092
1772740792838507800,5.5715078125,0.6735134124755859,1.0107285976409912,-0.28360962867736816
1772740792857280300,5.5902802734375,0.7498111724853516,1.2766547203063965,-0.24536871910095215
1772740792876052700,5.609052734375,1.2207984924316406,1.587473750114441,-0.1508326530456543
1772740792894825000,5.627824951171875,2.469893455505371,1.4998984336853027,0.03619349002838135
1772740792913584400,5.64658447265625,3.823976516723633,1.0590778589248657,0.28276801109313965
1772740792932369700,5.66536962890625,4.577880859375,0.5932368040084839,0.43833446502685547
1772740792951142100,5.68414208984375,4.634330749511719,0.43444693088531494,0.2756694555282593
1772740792969914400,5.702914306640625,3.4702653884887695,0.37325382232666016,0.07190728187561035
1772740792988686800,5.721686767578125,1.2233161926269531,0.2648007869720459,-0.05732524394989014
1772740793007459000,5.740458984375,-1.0268478393554688,0.4070441722869873,-0.23437118530273438
1772740793026218500,5.759218505859375,-2.508803367614746,0.8895436525344849,-0.37955451011657715
1772740793045003800,5.778003662109375,-2.994143486022949,1.4246697425842285,-0.35837697982788086
1772740793063776300,5.7967763671875,-2.451296329498291,1.8416268825531006,-0.1643742322921753
1772740793082548700,5.815548828125,-1.2754936218261719,2.0043206214904785,0.12125933170318604
1772740793101321000,5.834321044921875,0.34498023986816406,1.6997087001800537,0.4333047866821289
1772740793120093400,5.853093505859375,1.8760919570922852,0.9784286022186279,0.4450521469116211
1772740793138852600,5.8718525390625,2.5231704711914062,0.023278236389160156,0.18095874786376953
1772740793157638100,5.89063818359375,2.1420068740844727,-1.2757036685943604,-0.08266758918762207
1772740793176410400,5.909410400390625,0.8689002990722656,-2.123511552810669,-0.4416605234146118
1772740793195169800,5.928169677734375,-0.5852241516113281,-2.0438101291656494,-0.902730405330658
1772740793213955000,5.946955078125,-1.6606197357177734,-1.6083027124404907,-1.0281262397766113
1772740793232727600,5.9657275390625,-2.0991644859313965,-1.1792360544204712,-0.9909536242485046
1772740793251500000,5.9845,-2.2970170974731445,-0.9152027368545532,-0.9408981800079346
1772740793270272300,6.003272216796875,-2.4695024490356445,-0.8509217500686646,-0.9905620813369751
1772740793289044700,6.022044677734375,-2.516097068786621,-0.8809696435928345,-1.0721172094345093
1772740793307817000,6.04081689453125,-2.413703441619873,-0.9796772003173828,-1.0439345836639404
1772740793326589400,6.05958935546875,-2.18491268157959,-0.8871866464614868,-0.9775166511535645
1772740793345361700,6.078361572265625,-1.8481483459472656,-0.6540156602859497,-0.8824253678321838
1772740793364134100,6.097134033203125,-1.3947734832763672,-0.3323800563812256,-0.8220836520195007
1772740793382906400,6.11590625,-0.8695087432861328,-0.07222938537597656,-0.7208663821220398
1772740793401678800,6.134678955078125,-0.4344053268432617,0.22409141063690186,-0.6756579875946045
1772740793420451000,6.153451171875,-0.1579303741455078,0.48152637481689453,-0.6397613286972046
1772740793439223600,6.1722236328125,0.034247398376464844,0.6129469871520996,-0.5519543886184692
1772740793457996000,6.19099609375,0.3374204635620117,0.6549897193908691,-0.371354877948761
1772740793476768300,6.209768310546875,0.8229560852050781,0.7289282083511353,-0.15987926721572876
1772740793495540700,6.228540771484375,1.3697147369384766,0.7131062746047974,0.05814719200134277
1772740793514313000,6.24731298828125,1.5266590118408203,0.7980285882949829,0.15025651454925537
1772740793533085400,6.26608544921875,0.9590177536010742,1.1533982753753662,0.03000462055206299
1772740793551857700,6.284857666015625,0.16428661346435547,1.6937229633331299,-0.0820818543434143
1772740793570630100,6.303630126953125,-0.02758026123046875,2.1552891731262207,-0.11070257425308228
1772740793589402400,6.32240234375,0.4533367156982422,2.6059398651123047,-0.15660732984542847
1772740793608174800,6.3411748046875,1.5954313278198242,2.630598306655884,-0.09327918291091919
1772740793626947000,6.359947021484375,2.718994140625,2.12774658203125,0.01837027072906494
1772740793645706500,6.37870654296875,3.724977493286133,1.7178311347961426,-0.00410151481628418
1772740793664492000,6.397491943359375,4.457101821899414,1.1499357223510742,0.02008664608001709
1772740793683264300,6.41626416015625,4.419713973999023,0.5270801186561584,0.08688652515411377
1772740793702036700,6.43503662109375,3.6696529388427734,0.2962239980697632,-0.08974623680114746
1772740793720809000,6.45380908203125,2.253830909729004,0.13718605041503906,-0.3018615245819092
1772740793739581400,6.47258154296875,0.5415287017822266,-0.12319958209991455,-0.3285117745399475
1772740793758340600,6.491340576171875,-1.0981054306030273,-0.12274801731109619,-0.42438074946403503
1772740793777126100,6.510126220703125,-2.091993808746338,0.12568140029907227,-0.5514227151870728
1772740793795898400,6.5288984375,-2.033031463623047,0.39457786083221436,-0.5133971571922302
1772740793814670800,6.5476708984375,-1.0164241790771484,0.43248581886291504,-0.2590510845184326
1772740793833443300,6.566443359375,0.1079263687133789,0.06709074974060059,0.027306556701660156
1772740793852215600,6.585215576171875,1.0580644607543945,-0.33500146865844727,0.12991487979888916
1772740793870987800,6.60398779296875,1.8003969192504883,-0.7906152009963989,0.1485813856124878
1772740793889760300,6.62276025390625,2.008777618408203,-1.332220435142517,0.09194743633270264
1772740793908532700,6.64153271484375,1.5966339111328125,-1.8662108182907104,-0.008339881896972656
1772740793927305000,6.660304931640625,0.504359245300293,-2.034367322921753,-0.2027376890182495
1772740793946077400,6.679077392578125,-0.9168577194213867,-1.8294042348861694,-0.44102317094802856
1772740793964849700,6.697849609375,-2.076103687286377,-1.7026599645614624,-0.5992785692214966
1772740793983609000,6.716609130859375,-2.73641300201416,-1.589615821838379,-0.6959695219993591
1772740794002394400,6.735394287109375,-3.0311079025268555,-1.4742144346237183,-0.749031662940979
1772740794021166800,6.754166748046875,-2.939302444458008,-1.3176013231277466,-0.7947888374328613
1772740794039939000,6.77293896484375,-2.637465000152588,-1.2460622787475586,-0.7631087899208069
1772740794058711600,6.791711669921875,-2.2836251258850098,-1.3112106323242188,-0.7106595039367676
1772740794077484000,6.810484130859375,-1.9822993278503418,-1.367829442024231,-0.6972748041152954
1772740794096256300,6.82925634765625,-1.8382267951965332,-1.399403691291809,-0.6640317440032959
1772740794115028700,6.84802880859375,-1.871640682220459,-1.2679179906845093,-0.6309830546379089
1772740794133801000,6.866801025390625,-1.9977493286132812,-1.1007548570632935,-0.5558458566665649
1772740794152573400,6.885573486328125,-1.968651294708252,-0.9496469497680664,-0.437089741230011
1772740794171345700,6.904345703125,-1.5058660507202148,-0.918499231338501,-0.25220388174057007
1772740794190118100,6.9231181640625,-0.7740135192871094,-0.9084004163742065,-0.009459912776947021
1772740794208890400,6.941890380859375,-0.1377887725830078,-0.5893306732177734,0.13025319576263428
1772740794227662800,6.960662841796875,0.21871662139892578,-0.10904359817504883,0.12871932983398438
1772740794246435000,6.97943505859375,0.5691804885864258,0.058268070220947266,0.29603350162506104
1772740794265207600,6.99820751953125,1.3387441635131836,0.22261691093444824,0.36464834213256836
1772740794283980000,7.01697998046875,2.1014251708984375,0.021066665649414062,0.3923804759979248
1772740794302752300,7.035752197265625,2.383930206298828,-0.37603819370269775,0.3892878293991089
1772740794321524700,7.054524658203125,2.3841238021850586,-0.7427351474761963,0.4464982748031616
1772740794340297000,7.073296875,2.4016218185424805,-0.8683286905288696,0.40531861782073975
1772740794359069400,7.0920693359375,2.0542192459106445,-0.8615754842758179,0.17215359210968018
1772740794377841700,7.110841552734375,1.2807464599609375,-0.7302509546279907,-0.1691509485244751
1772740794396614100,7.1296142578125,0.07201385498046875,-0.3407094478607178,-0.36693644523620605
1772740794415386400,7.148386474609375,-0.7909011840820312,0.2329193353652954,-0.3862927556037903
1772740794434158800,7.167158935546875,-1.2053470611572266,0.6763238906860352,-0.1541576385498047
1772740794452931000,7.18593115234375,-1.06341552734375,1.1357265710830688,0.11478245258331299
1772740794471703600,7.20470361328125,-0.18808841705322266,1.3858957290649414,0.4148988723754883
1772740794490462700,7.223462646484375,1.3213090896606445,1.3356356620788574,0.6200364828109741
1772740794509248300,7.242248291015625,2.8006057739257812,0.9362791776657104,0.701300859451294
1772740794528020500,7.2610205078125,3.226205825805664,0.34772324562072754,0.48883020877838135
1772740794546793000,7.27979296875,2.3140621185302734,-0.4584594964981079,0.1695798635482788
1772740794565565400,7.2985654296875,0.5529375076293945,-0.8481391668319702,-0.15034902095794678
1772740794584337700,7.317337646484375,-0.9738368988037109,-0.5281388759613037,-0.3820197582244873
1772740794603096800,7.336096923828125,-1.7433404922485352,0.07013165950775146,-0.4933047890663147
1772740794621882400,7.35488232421875,-1.9876365661621094,0.486774206161499,-0.5016818642616272
1772740794640654800,7.37365478515625,-1.8606557846069336,0.6941957473754883,-0.4745723605155945
1772740794659427000,7.392427001953125,-1.5115137100219727,0.6819871664047241,-0.43321722745895386
1772740794678199600,7.411199462890625,-1.2490310668945312,0.6691586971282959,-0.4931700825691223
1772740794696971800,7.4299716796875,-1.0335683822631836,0.6682507991790771,-0.6078059673309326
1772740794715744300,7.448744140625,-0.7542324066162109,0.5862545967102051,-0.6134427189826965
1772740794734516500,7.4675166015625,-0.5009546279907227,0.6868363618850708,-0.6326270699501038
1772740794753289000,7.4862890625,-0.20700550079345703,0.9187024831771851,-0.6803641319274902
1772740794772061200,7.505061279296875,-0.20218944549560547,0.8884083032608032,-0.6951466798782349
1772740794790833700,7.523833740234375,-0.4597015380859375,0.8332086801528931,-0.7698980569839478
1772740794809606100,7.542606201171875,-0.6575384140014648,0.8682267069816589,-0.8761894702911377
1772740794828378400,7.56137841796875,-0.5115890502929688,0.868026614189148,-0.7609768509864807
1772740794847150800,7.58015087890625,-0.029901504516601562,0.8394994139671326,-0.41023993492126465
1772740794865923000,7.598923095703125,0.6795806884765625,1.1056376695632935,-0.07167357206344604
1772740794884695600,7.617695556640625,0.7269105911254883,1.5847184658050537,-0.047126322984695435
1772740794903467800,7.6364677734375,0.5412673950195312,1.736453890800476,-0.03838345408439636
1772740794922240300,7.655240234375,0.8245754241943359,1.594552993774414,0.15021026134490967
1772740794941012500,7.674012451171875,1.6956653594970703,1.650156855583191,0.25454527139663696
1772740794959785000,7.692784912109375,2.9197654724121094,1.339203953742981,0.3742560148239136
1772740794978557200,7.71155712890625,3.921049118041992,0.8267900943756104,0.3697064518928528
1772740794997329700,7.73032958984375,4.244599342346191,-0.001600503921508789,0.4107314348220825
1772740795016102000,7.749101806640625,3.852217674255371,-0.6583621501922607,0.33100080490112305
1772740795034874400,7.767874267578125,2.6421356201171875,-0.8407415151596069,0.0971142053604126
1772740795053633500,7.786633544921875,1.0913677215576172,-1.0493812561035156,0.05033108592033386
1772740795072419000,7.805419189453125,-0.3842916488647461,-1.1329349279403687,0.05105599761009216
1772740795091191300,7.82419140625,-1.5206108093261719,-0.9783686399459839,-0.049470216035842896
1772740795109950700,7.84295068359375,-2.157227039337158,-0.8883630037307739,-0.09044739603996277
1772740795128736000,7.861736083984375,-2.023728847503662,-0.9058628082275391,-0.08824481070041656
1772740795147508500,7.880508544921875,-1.2297382354736328,-0.921933650970459,-0.012780606746673584
1772740795166281000,7.899281005859375,-0.08683300018310547,-0.8854293823242188,0.06477811932563782
1772740795185053200,7.91805322265625,0.7371864318847656,-1.0494654178619385,0.11495190858840942
1772740795203825700,7.93682568359375,1.2088193893432617,-1.2967963218688965,0.18648147583007812
1772740795222598000,7.955597900390625,1.5248947143554688,-1.6061623096466064,0.2794206142425537
1772740795241370400,7.974370361328125,1.5857810974121094,-1.8386954069137573,0.2202419638633728
1772740795260142600,7.993142578125,1.022658348083496,-2.0016329288482666,0.026022374629974365
1772740795278902000,8.011902099609374,-0.09370994567871094,-2.155566930770874,-0.17929846048355103
1772740795297687300,8.030687255859375,-1.1181879043579102,-2.098895311355591,-0.327663779258728
1772740795316459800,8.049459716796875,-1.852107048034668,-1.9586427211761475,-0.4862198829650879
1772740795335232000,8.06823193359375,-2.0599613189697266,-1.8411927223205566,-0.534199595451355
1772740795354004500,8.08700439453125,-1.9351320266723633,-1.7218000888824463,-0.533331036567688
1772740795372776700,8.105776611328125,-1.5636730194091797,-1.6600596904754639,-0.4059801697731018
1772740795391549200,8.124549072265625,-1.1883258819580078,-1.6500338315963745,-0.2847508192062378
1772740795410321400,8.1433212890625,-1.042348861694336,-1.7083799839019775,-0.21616756916046143
1772740795429094000,8.162093994140625,-1.0355539321899414,-1.7972525358200073,-0.18598175048828125
1772740795447866000,8.1808662109375,-0.9016551971435547,-1.747770071029663,-0.05351823568344116
1772740795466638600,8.199638671875,-0.6951303482055664,-1.6064225435256958,0.11335194110870361
1772740795485411000,8.2184111328125,-0.4951753616333008,-1.4736106395721436,0.2511667013168335
1772740795504183300,8.237183349609374,-0.05014610290527344,-1.3869197368621826,0.42178285121917725
1772740795522955800,8.255955810546874,0.25492382049560547,-1.3400492668151855,0.5461822152137756
1772740795541728000,8.27472802734375,0.19216156005859375,-1.3525114059448242,0.5532844662666321
1772740795560500500,8.29350048828125,-0.044956207275390625,-1.3446213006973267,0.4281948208808899
1772740795579272700,8.312272705078126,-0.5060272216796875,-1.0864858627319336,0.18072932958602905
1772740795598045200,8.331045166015626,-0.8171768188476562,-0.7163505554199219,0.04672616720199585
1772740795616817400,8.3498173828125,-0.6330404281616211,-0.4557366371154785,0.036186039447784424
1772740795635590000,8.36858984375,0.13959121704101562,-0.5808501243591309,0.04000729322433472
1772740795654362000,8.387362060546875,1.0789756774902344,-1.159882664680481,0.020003795623779297
1772740795673134600,8.406134521484375,1.5577363967895508,-1.688751459121704,-0.07833278179168701
1772740795691906800,8.42490673828125,1.7947320938110352,-2.3243114948272705,0.028559386730194092
1772740795710679300,8.44367919921875,1.4916009902954102,-2.2979750633239746,0.2240092158317566
1772740795729451500,8.462451416015625,0.7803220748901367,-1.5081912279129028,0.408383309841156
1772740795748224000,8.48122412109375,0.2793426513671875,-0.8168203830718994,0.6137412786483765
1772740795766996200,8.499996337890625,0.03608417510986328,-0.6823091506958008,0.8869608044624329
1772740795785768700,8.518768798828125,-0.049701690673828125,-0.527072548866272,1.0473254919052124
1772740795804541000,8.537541015625,0.021924972534179688,-0.3311532735824585,1.1888244152069092
1772740795823313400,8.5563134765625,0.34000492095947266,-0.22825193405151367,1.2830591201782227
1772740795842086000,8.5750859375,0.8704395294189453,-0.39003944396972656,1.317071557044983
1772740795860858000,8.593858154296875,1.1628971099853516,-0.6705259084701538,1.2368857860565186
1772740795879630300,8.61263037109375,0.9648475646972656,-0.8426737785339355,1.0628247261047363
1772740795898402800,8.63140283203125,0.27762508392333984,-0.7325304746627808,0.8396156430244446
1772740795917175300,8.65017529296875,-0.15625286102294922,-0.40062403678894043,0.6391943693161011
1772740795935947500,8.668947509765625,-0.22345352172851562,-0.09768486022949219,0.54888516664505
1772740795954720000,8.687719970703125,-0.34236621856689453,0.10018384456634521,0.4478401243686676
1772740795973492200,8.7064921875,-0.40024662017822266,0.25533533096313477,0.3446122407913208
1772740795992264700,8.7252646484375,-0.3240079879760742,0.3449976444244385,0.2708110511302948
1772740796011037000,8.744036865234374,-0.2688455581665039,0.3673849105834961,0.20936208963394165
1772740796029809400,8.762809326171874,-0.21340179443359375,0.36533474922180176,0.11985573172569275
1772740796048581600,8.78158154296875,-0.004780769348144531,0.4271198511123657,0.05007451772689819
1772740796067354000,8.80035400390625,0.1741161346435547,0.49569272994995117,0.017569109797477722
1772740796086126300,8.819126220703126,0.31032752990722656,0.5948503017425537,-0.003999296575784683
1772740796104898800,8.83789892578125,0.44879817962646484,0.5813395977020264,0.03820601850748062
1772740796123671000,8.856671142578126,0.4302358627319336,0.5068464875221252,0.001101464033126831
1772740796142443500,8.875443603515626,0.5199155807495117,0.4415539503097534,-0.035718709230422974
1772740796161215700,8.8942158203125,0.7920331954956055,0.4068410396575928,-0.0021030157804489136
1772740796179988200,8.91298828125,1.1362066268920898,0.3816854953765869,0.1618788093328476
1772740796198760400,8.931760498046875,1.7828178405761719,0.26863253116607666,0.5043796896934509
1772740796217533000,8.950532958984375,2.360663414001465,0.2649894952774048,0.587834358215332
1772740796236305200,8.96930517578125,2.5602989196777344,-0.17898184061050415,0.7972931265830994
1772740796255077600,8.98807763671875,1.7718839645385742,-0.517509937286377,0.780668318271637
1772740796273849900,9.006849853515625,0.42213916778564453,-0.2802985906600952,0.5717341899871826
1772740796292609300,9.025609375,-0.5039777755737305,0.5279346704483032,0.376787930727005
1772740796311394600,9.04439453125,-0.4220914840698242,1.1323031187057495,0.5406469106674194
1772740796330167000,9.0631669921875,0.18991374969482422,1.4478703737258911,0.7344051599502563
1772740796348939500,9.081939453125,0.9851140975952148,1.2629828453063965,0.8566066026687622
1772740796367711700,9.100711669921875,1.4437494277954102,0.46631765365600586,0.9093402028083801
1772740796386484000,9.11948388671875,1.3122062683105469,-0.5265485048294067,0.807141125202179
1772740796405256400,9.13825634765625,0.7868890762329102,-1.0740383863449097,0.5297204852104187
1772740796424029000,9.15702880859375,0.13348388671875,-1.1657912731170654,0.24483299255371094
1772740796442801200,9.17580126953125,-0.36352062225341797,-1.1350669860839844,0.07469430565834045
1772740796461573600,9.19457373046875,-0.4721994400024414,-1.047576904296875,0.032864391803741455
1772740796480345900,9.213345947265625,-0.17132282257080078,-1.1413294076919556,0.073515385389328
1772740796499118300,9.232118408203124,0.09926986694335938,-1.3927116394042969,0.0480533242225647
1772740796517890600,9.250890625,0.010767936706542969,-1.6931043863296509,-0.06454992294311523
1772740796536663000,9.2696630859375,-0.44001007080078125,-1.8749914169311523,-0.22926294803619385
1772740796555435300,9.288435302734374,-1.028031349182129,-1.8207956552505493,-0.4469228982925415
1772740796574207700,9.307207763671874,-1.5174884796142578,-1.6839232444763184,-0.6040627956390381
1772740796592980000,9.32597998046875,-1.8058347702026367,-1.5613183975219727,-0.7270033359527588
1772740796611752400,9.34475244140625,-1.8757805824279785,-1.4682302474975586,-0.7891327738761902
1772740796630524700,9.363524658203126,-1.724996566772461,-1.3989524841308594,-0.7168324589729309
1772740796649297200,9.382297119140626,-1.6094903945922852,-1.326134204864502,-0.6429104804992676
1772740796668069400,9.4010693359375,-1.5217056274414062,-1.251792550086975,-0.6070022583007812
1772740796686841900,9.419841796875,-1.3608627319335938,-1.1473009586334229,-0.5519577860832214
1772740796705614000,9.438614013671875,-1.1576566696166992,-1.103855848312378,-0.5322140455245972
1772740796724386600,9.457386474609375,-0.9780292510986328,-1.1316150426864624,-0.503570020198822
1772740796743158800,9.47615869140625,-0.8806056976318359,-1.0647131204605103,-0.5045429468154907
1772740796761931300,9.49493115234375,-0.7394771575927734,-0.9182469844818115,-0.476301372051239
1772740796780703700,9.513703857421875,-0.7539215087890625,-0.9205547571182251,-0.3373340368270874
1772740796799476000,9.53247607421875,-0.5481281280517578,-1.0801775455474854,-0.04480119049549103
1772740796818248200,9.551248291015625,0.14876461029052734,-1.128064513206482,0.21921752393245697
1772740796837020700,9.570020751953125,0.8712091445922852,-1.0826131105422974,0.32960930466651917
1772740796855793200,9.588793212890625,0.5950078964233398,-1.0051920413970947,0.05455256626009941
1772740796874565400,9.6075654296875,-0.15334606170654297,-1.0784541368484497,-0.1564638465642929
1772740796893337900,9.626337890625,0.0845022201538086,-0.9217216968536377,0.09738609939813614
1772740796912110000,9.645110107421875,0.899601936340332,-0.46930718421936035,0.5102024674415588
1772740796930882600,9.663882568359375,1.5045814514160156,-0.2840688228607178,0.7049432396888733
1772740796949654800,9.68265478515625,2.0441226959228516,-0.6761375665664673,0.8544594049453735
1772740796968427300,9.70142724609375,2.043275833129883,-1.1354795694351196,0.7570943236351013
1772740796987199500,9.720199462890625,1.4150390625,-1.5548092126846313,0.6669353246688843
1772740797005972000,9.738971923828124,0.4327993392944336,-1.2181627750396729,0.5176091194152832
1772740797024744200,9.757744140625,-0.31833457946777344,-0.45514580607414246,0.4808865189552307
1772740797043516700,9.7765166015625,-0.8308887481689453,0.07252228260040283,0.5633879899978638
1772740797062289000,9.795288818359374,-1.1477699279785156,0.42571622133255005,0.6126645803451538
1772740797081061400,9.814061279296874,-0.7921905517578125,0.6649068593978882,0.740869402885437
1772740797099833600,9.83283349609375,-0.06615734100341797,0.7148037552833557,0.8121729493141174
1772740797118606000,9.851606201171874,0.44319629669189453,0.4643229842185974,0.7248595952987671
1772740797137378300,9.87037841796875,0.822906494140625,0.26859280467033386,0.6366379857063293
1772740797156150800,9.88915087890625,0.7271852493286133,0.1222635805606842,0.511692464351654
1772740797174923000,9.907923095703126,0.4805450439453125,0.24798382818698883,0.35878193378448486
1772740797193695500,9.926695556640626,0.1482686996459961,0.4309382438659668,0.315221905708313
1772740797212468000,9.945468017578126,0.016923904418945312,0.7969111204147339,0.35378149151802063
1772740797231240200,9.964240234375,0.12828350067138672,1.2945150136947632,0.470844030380249
1772740797250012400,9.983012451171875,0.08845233917236328,1.607145071029663,0.49407798051834106
1772740797268785000,10.001784912109375,-0.3401203155517578,1.5047954320907593,0.42147693037986755
1772740797287557400,10.020557373046875,-0.5703592300415039,1.413338303565979,0.29063791036605835
1772740797306329600,10.03932958984375,-0.60968017578125,1.4574507474899292,0.19704997539520264
1772740797325102000,10.05810205078125,0.06560993194580078,1.4562300443649292,0.2068418264389038
1772740797343874300,10.076874267578125,0.14209461212158203,1.4387600421905518,0.1822049617767334
1772740797362646800,10.095646728515625,0.09926605224609375,1.5688116550445557,-0.017854630947113037
1772740797381419000,10.1144189453125,0.03509712219238281,1.4130889177322388,-0.028979718685150146
