time,seconds_elapsed,z,y,x
1772740787426369800,0.159369873046875,0.02489202655851841,-0.18768282234668732,-0.07406523078680038
1772740787445142300,0.178142333984375,-0.04291202127933502,-0.20219044387340546,-0.1122431829571724
1772740787463914500,0.19691455078125,-0.16187451779842377,-0.27564483880996704,-0.2910687327384949
1772740787482687000,0.21568701171875,-0.2742704153060913,-0.3545968234539032,-0.5477772951126099
1772740787501459500,0.23445947265625,-0.3749074935913086,-0.3924693763256073,-0.7162184119224548
1772740787520231700,0.253231689453125,-0.41354358196258545,-0.312142938375473,-0.7487460374832153
1772740787539004200,0.272004150390625,-0.33474430441856384,-0.20219044387340546,-0.7209524512290955
1772740787557776400,0.2907763671875,-0.32008397579193115,-0.237008735537529,-0.8064711093902588
1772740787576548900,0.309548828125,-0.3695625960826874,-0.3477247953414917,-1.0427162647247314
1772740787595321300,0.3283212890625,-0.5082249045372009,-0.3883461356163025,-1.3417259454727173
1772740787614093600,0.347093505859375,-0.6859814524650574,-0.2295258641242981,-1.562089204788208
1772740787632866000,0.365865966796875,-0.7679877281188965,0.10552386194467545,-1.6190506219863892
1772740787651638300,0.38463818359375,-0.6355865597724915,0.5464028716087341,-1.29331636428833
1772740787670410800,0.40341064453125,-0.3298575282096863,0.9785773158073425,-0.5890094637870789
1772740787689183000,0.422182861328125,0.060779303312301636,1.193290114402771,0.2163926362991333
1772740787707942400,0.4409423828125,0.41445985436439514,0.9990406632423401,0.8168554902076721
1772740787726728000,0.45972802734375,0.6119162440299988,0.5384618639945984,1.139993667602539
1772740787745500200,0.478500244140625,0.5702258944511414,-0.09345962852239609,1.181836724281311
1772740787764259600,0.497259521484375,0.3226800560951233,-0.6783458590507507,1.0216420888900757
1772740787783044900,0.516044921875,-0.0781884491443634,-0.9426900148391724,0.731184184551239
1772740787801817300,0.5348173828125,-0.5286883115768433,-0.8851176500320435,0.3596363365650177
1772740787820576500,0.553576416015625,-0.8664868474006653,-0.5279247164726257,0.020005248486995697
1772740787839362000,0.572362060546875,-0.9602518677711487,0.006719320081174374,-0.18737739324569702
1772740787858134500,0.591134521484375,-0.8194515705108643,0.45645561814308167,-0.1751604527235031
1772740787876906800,0.60990673828125,-0.5943543910980225,0.6557445526123047,0.0038177953101694584
1772740787895679200,0.62867919921875,-0.3823903799057007,0.5349494814872742,0.2092151790857315
1772740787914451500,0.647451416015625,-0.26938363909721375,0.19226416945457458,0.28602921962738037
1772740787933224000,0.666223876953125,-0.2716743052005768,-0.0719272643327713,0.23899398744106293
1772740787951996200,0.68499609375,-0.3295520842075348,-0.1566823273897171,0.07085828483104706
1772740787970768600,0.7037685546875,-0.3761292099952698,-0.049173206090927124,-0.13056860864162445
1772740787989540900,0.722540771484375,-0.3408527672290802,0.0978882759809494,-0.2644968628883362
1772740788008313300,0.741313232421875,-0.23288552463054657,0.2044811248779297,-0.24907296895980835
1772740788027085800,0.7600859375,-0.09620844572782516,0.2585411071777344,-0.1441599577665329
1772740788045884700,0.778884765625,0.007482878863811493,0.24067382514476776,-0.0794101431965828
1772740788064630500,0.797630615234375,0.02641914412379265,0.22708246111869812,-0.12201674282550812
1772740788083402800,0.81640283203125,0.006261184345930815,0.2357870489358902,-0.1901262104511261
1772740788102175200,0.83517529296875,0.03436015918850899,0.2414373755455017,-0.18218518793582916
1772740788120947500,0.853947509765625,0.13514995574951172,0.18401773273944855,-0.11560284346342087
1772740788139720000,0.872719970703125,0.2522799074649811,0.07391251623630524,-0.038483377546072006
1772740788158492200,0.8914921875,0.33291175961494446,-0.011300674639642239,0.04230117425322533
1772740788177264600,0.9102646484375,0.3567348122596741,-0.03130592033267021,0.08719844371080399
1772740788196036900,0.929036865234375,0.3536805510520935,0.046729814261198044,0.08521319180727005
1772740788214809300,0.947809326171875,0.34512871503829956,0.14018943905830383,0.03512371703982353
1772740788233581800,0.966581787109375,0.29748260974884033,-0.0021379655227065086,-0.15057384967803955
1772740788252354000,0.98535400390625,0.19195875525474548,-0.23471805453300476,-0.31351736187934875
1772740788271113500,1.004113525390625,0.06444438546895981,-0.3730749487876892,-0.363454133272171
1772740788289898800,1.022898681640625,-0.03680354729294777,-0.2918322682380676,-0.3106158375740051
1772740788308671200,1.041671142578125,-0.0528382882475853,-0.0016798300202935934,-0.130721315741539
1772740788327443500,1.060443359375,0.03924693539738655,0.36818817257881165,0.10521844029426575
1772740788346216000,1.0792158203125,0.19959434866905212,0.6256603002548218,0.3011476993560791
1772740788364988200,1.09798828125,0.37536564469337463,0.7360709309577942,0.4724903404712677
1772740788383747600,1.11674755859375,0.5268557667732239,0.7237012982368469,0.6868977546691895
1772740788402532900,1.135532958984375,0.6490252017974854,0.5485408306121826,0.8883246183395386
1772740788421305300,1.154305419921875,0.7444701194763184,0.2710634768009186,0.9969027042388916
1772740788440077600,1.17307763671875,0.7788302302360535,-0.06642963737249374,0.9746068120002747
1772740788458850000,1.19185009765625,0.7020162343978882,-0.38391751050949097,0.8312104344367981
1772740788477622300,1.210622314453125,0.540905237197876,-0.5870242118835449,0.6100836992263794
1772740788496394800,1.229394775390625,0.3755183517932892,-0.73255854845047,0.44072631001472473
1772740788515167200,1.248167236328125,0.17363333702087402,-0.7982246279716492,0.3643703758716583
1772740788533939500,1.266939453125,-0.013133215717971325,-0.629172682762146,0.35505497455596924
1772740788552711700,1.285711669921875,-0.09575030952692032,-0.22479179501533508,0.42194274067878723
1772740788571484200,1.304484130859375,-0.06856760382652283,0.2166980654001236,0.47890424728393555
1772740788590256600,1.323256591796875,-0.03268032893538475,0.5218162536621094,0.460273414850235
1772740788609015800,1.342015869140625,-0.007177455350756645,0.6079457402229309,0.40606072545051575
1772740788627801300,1.36080126953125,-0.027793550863862038,0.525175929069519,0.3611634373664856
1772740788646573600,1.379573486328125,-0.06261184066534042,0.31290650367736816,0.25472331047058105
1772740788665346000,1.398345947265625,-0.1253764033317566,0.1172826737165451,0.11545012891292572
1772740788684118300,1.4171181640625,-0.20341213047504425,0.015423892997205257,-0.04199574887752533
1772740788702890800,1.435890869140625,-0.3011476993560791,-0.023823043331503868,-0.18676654994487762
1772740788721663000,1.4546630859375,-0.40728241205215454,-0.010078979656100273,-0.27625566720962524
1772740788740435500,1.473435546875,-0.4665345847606659,-0.021226942539215088,-0.3298575282096863
1772740788759207700,1.492207763671875,-0.455539345741272,-0.10811996459960938,-0.314586341381073
1772740788777980200,1.510980224609375,-0.40606072545051575,-0.21715620160102844,-0.25441789627075195
1772740788796752400,1.52975244140625,-0.34543412923812866,-0.3321481943130493,-0.21196399629116058
1772740788815524900,1.54852490234375,-0.3155026137828827,-0.3584146201610565,-0.17989452183246613
1772740788834297300,1.56729736328125,-0.34848836064338684,-0.3826957941055298,-0.25563958287239075
1772740788853069600,1.586069580078125,-0.4291202127933502,-0.3799470067024231,-0.38956785202026367
1772740788871841800,1.604841796875,-0.4859289824962616,-0.2707580327987671,-0.446529358625412
1772740788890614300,1.6236142578125,-0.559841513633728,-0.2498365342617035,-0.5509842038154602
1772740788909386800,1.64238671875,-0.6264238357543945,-0.2886253297328949,-0.7348492741584778
1772740788928159000,1.661158935546875,-0.7398887276649475,-0.3498627543449402,-0.9127585291862488
1772740788946931500,1.679931396484375,-0.896723747253418,-0.43645036220550537,-1.00224769115448
1772740788965703700,1.69870361328125,-1.0083560943603516,-0.39918869733810425,-0.9533798694610596
1772740788984476200,1.71747607421875,-0.9767447710037231,-0.16080553829669952,-0.7304205894470215
1772740789003248400,1.736248291015625,-0.8389987349510193,0.2244863659143448,-0.45523393154144287
1772740789022020900,1.755020751953125,-0.6413896083831787,0.5012001991271973,-0.265718549489975
1772740789040793000,1.77379296875,-0.4265241026878357,0.5308262705802917,-0.05008947476744652
1772740789059552300,1.79255224609375,-0.2742704153060913,0.30695074796676636,0.14706148207187653
1772740789078337800,1.811337890625,-0.21791976690292358,-0.0462716780602932,0.24220094084739685
1772740789097110300,1.8301103515625,-0.2892361879348755,-0.4402681589126587,0.1776038408279419
1772740789115869400,1.848869384765625,-0.5149442553520203,-0.7009472250938416,0.009009997360408306
1772740789134655000,1.867655029296875,-0.7913526296615601,-0.7235485911369324,-0.23273280262947083
1772740789153427200,1.88642724609375,-0.9794935584068298,-0.4149180054664612,-0.41858309507369995
1772740789172199700,1.90519970703125,-1.035996913909912,0.04428642615675926,-0.5027272701263428
1772740789190972000,1.923971923828125,-0.8762603998184204,0.4474456310272217,-0.4034646153450012
1772740789209744400,1.942744384765625,-0.6175665855407715,0.6528429985046387,-0.14660334587097168
1772740789228503600,1.961503662109375,-0.38849884271621704,0.5497625470161438,0.10735640674829483
1772740789247289000,1.9802890625,-0.28160059452056885,0.33321717381477356,0.22906772792339325
1772740789266061300,1.999061279296875,-0.2773246467113495,0.1692046970129013,0.1360662281513214
1772740789284833800,2.017833740234375,-0.35658207535743713,0.033291175961494446,-0.10857810080051422
1772740789303606000,2.03660595703125,-0.45737189054489136,-0.04947862774133682,-0.30878329277038574
1772740789322378500,2.05537841796875,-0.506239652633667,-0.062306419014930725,-0.34573954343795776
1772740789341150700,2.074150634765625,-0.476308137178421,-0.033596597611904144,-0.30481278896331787
1772740789359923200,2.092923095703125,-0.3901786804199219,0.0015271181473508477,-0.23242738842964172
1772740789378695700,2.11169580078125,-0.33291175961494446,0.09666658192873001,-0.10781454294919968
1772740789397468000,2.130468017578125,-0.30481278896331787,0.18707197904586792,-0.006719320081174374
1772740789416240400,2.149240478515625,-0.29565006494522095,0.23166382312774658,0.0012216945178806782
1772740789435012600,2.1680126953125,-0.2870981991291046,0.2032594233751297,0.013438640162348747
1772740789453785000,2.18678515625,-0.29503923654556274,0.14034216105937958,0.07956285774707794
1772740789472557300,2.205557373046875,-0.29916244745254517,0.06383354216814041,0.16584503650665283
1772740789491329800,2.224329833984375,-0.3077143132686615,0.03390202298760414,0.23273280262947083
1772740789510102000,2.24310205078125,-0.30282753705978394,0.09147437661886215,0.26006820797920227
1772740789528874500,2.26187451171875,-0.2907632887363434,0.23823043704032898,0.3045073449611664
1772740789547646700,2.280646728515625,-0.26938363909721375,0.17974179983139038,0.29259583353996277
1772740789566419200,2.299419189453125,-0.29977330565452576,-0.09055810421705246,0.13453911244869232
1772740789585191400,2.31819140625,-0.48638713359832764,-0.41705596446990967,-0.19806721806526184
1772740789603964000,2.3369638671875,-0.7391251921653748,-0.40422818064689636,-0.4225535988807678
1772740789622723000,2.35572314453125,-0.8790091872215271,-0.06551336497068405,-0.36253786087036133
1772740789641508600,2.374508544921875,-0.7850914597511292,0.3671191930770874,0.01969982497394085
1772740789660280800,2.39328076171875,-0.5722111463546753,0.5926745533943176,0.39201122522354126
1772740789679040300,2.412040283203125,-0.4610369801521301,0.5680879354476929,0.6116108298301697
1772740789697825500,2.430825439453125,-0.5189147591590881,0.47768256068229675,0.742026686668396
1772740789716598000,2.449597900390625,-0.5847335457801819,0.3686463236808777,0.8054021000862122
1772740789735370200,2.468370361328125,-0.6377245187759399,0.15347537398338318,0.779593825340271
1772740789754142700,2.487142822265625,-0.6687250137329102,-0.14049486815929413,0.6612421870231628
1772740789772915000,2.5059150390625,-0.7388197779655457,-0.4121691882610321,0.4903576374053955
1772740789791687400,2.5246875,-0.8712208867073059,-0.5355603098869324,0.3011476993560791
1772740789810459600,2.543459716796875,-1.018282413482666,-0.49616068601608276,0.09743013978004456
1772740789829232000,2.562232177734375,-1.1441168785095215,-0.3324536085128784,-0.010842538438737392
1772740789848004400,2.58100439453125,-1.194969892501831,-0.1301104724407196,0.047951508313417435
1772740789866776800,2.59977685546875,-1.1198357343673706,0.08231166750192642,0.279920756816864
1772740789885549300,2.61854931640625,-0.976439356803894,0.19150061905384064,0.5645755529403687
1772740789904308500,2.63730859375,-0.874427855014801,0.20219044387340546,0.7401941418647766
1772740789923093800,2.65609375,-0.8389987349510193,0.13652436435222626,0.8194515705108643
1772740789941866200,2.6748662109375,-0.9200887084007263,-0.0065666078589856625,0.7750124335289001
1772740789960638700,2.693638671875,-1.1245697736740112,-0.16615045070648193,0.6826218366622925
1772740789979411000,2.712410888671875,-1.3678396940231323,-0.3426853120326996,0.5668662786483765
1772740789998183400,2.731183349609375,-1.5338374376296997,-0.5427377820014954,0.41705596446990967
1772740790016955600,2.74995556640625,-1.6222575902938843,-0.6615476012229919,0.29412296414375305
1772740790035728100,2.76872802734375,-1.685174822807312,-0.7096518278121948,0.2095206081867218
1772740790054500400,2.787500244140625,-1.7900879383087158,-0.7192726731300354,0.1719534993171692
1772740790073272800,2.80627294921875,-1.926764965057373,-0.7507312893867493,0.11682453751564026
1772740790092045000,2.825045166015625,-2.065274477005005,-0.8057075142860413,0.016187451779842377
1772740790110817500,2.843817626953125,-2.1862223148345947,-0.8722898960113525,-0.07986827939748764
1772740790129589800,2.86258984375,-2.268075942993164,-0.8814526200294495,-0.11438114941120148
1772740790148362200,2.8813623046875,-2.291135311126709,-0.9100096821784973,-0.07971556484699249
1772740790167134500,2.900134521484375,-2.308849811553955,-0.9513946175575256,-0.08139539510011673
1772740790185907000,2.918906982421875,-2.3271753787994385,-0.8197570443153381,-0.06963659077882767
1772740790204679200,2.93767919921875,-2.3621463775634766,-0.6751389503479004,-0.07666133344173431
1772740790223451600,2.95645166015625,-2.37741756439209,-0.6629219651222229,-0.1560714691877365
1772740790242223900,2.975223876953125,-2.40368390083313,-0.6665870547294617,-0.26938363909721375
1772740790260996400,2.993996337890625,-2.442167282104492,-0.5858024954795837,-0.35200074315071106
1772740790279768600,3.0127685546875,-2.4684338569641113,-0.47737714648246765,-0.3831539452075958
1772740790298541000,3.031541015625,-2.4343791007995605,-0.4068242609500885,-0.3521534502506256
1772740790317313500,3.0503134765625,-2.3134312629699707,-0.34971004724502563,-0.23624517023563385
1772740790336085800,3.069085693359375,-2.143768548965454,-0.2786990702152252,-0.010842538438737392
1772740790354858000,3.08785791015625,-1.9941108226776123,-0.3164188861846924,0.1385096162557602
1772740790373630500,3.10663037109375,-1.9055380821228027,-0.44072631001472473,0.16370706260204315
1772740790392403000,3.12540283203125,-1.9110356569290161,-0.5230379700660706,0.16019469499588013
1772740790411175200,3.144175048828125,-1.954253077507019,-0.573585569858551,0.15316994488239288
1772740790429947600,3.16294775390625,-1.9841846227645874,-0.610236406326294,0.10369132459163666
1772740790448720000,3.181719970703125,-1.9933472871780396,-0.5920637249946594,0.021532366052269936
1772740790467492400,3.200492431640625,-2.002051830291748,-0.5183038711547852,-0.07757759839296341
1772740790486264600,3.2192646484375,-2.00449538230896,-0.4052971601486206,-0.16767756640911102
1772740790505037000,3.238037109375,-2.0095348358154297,-0.293664813041687,-0.22540263831615448
1772740790523809300,3.256809326171875,-1.9991503953933716,-0.2632751762866974,-0.26938363909721375
1772740790542581800,3.275581787109375,-1.9722731113433838,-0.31473904848098755,-0.28572380542755127
1772740790561354000,3.29435400390625,-1.939898133277893,-0.3703261613845825,-0.2673983871936798
1772740790580126500,3.31312646484375,-1.9185185432434082,-0.41476529836654663,-0.2658712565898895
1772740790598898700,3.331898681640625,-1.897749662399292,-0.4265241026878357,-0.3164188861846924
1772740790617671200,3.350671142578125,-1.8472020626068115,-0.43614494800567627,-0.34100547432899475
1772740790636443400,3.369443359375,-1.7451906204223633,-0.49890950322151184,-0.19867807626724243
1772740790655215900,3.3882158203125,-1.604084849357605,-0.5740436911582947,0.016340164467692375
1772740790673988000,3.406988037109375,-1.4887875318527222,-0.5123481154441833,0.10750912129878998
1772740790692760600,3.425760498046875,-1.4681713581085205,-0.3730749487876892,0.03497100621461868
1772740790711532800,3.44453271484375,-1.4658807516098022,-0.15423893928527832,-0.06444438546895981
1772740790730305300,3.46330517578125,-1.4470971822738647,0.06887302547693253,-0.10628741979598999
1772740790749077800,3.482077880859375,-1.3971604108810425,0.188599094748497,-0.11712995916604996
1772740790767850000,3.50085009765625,-1.3464601039886475,0.22708246111869812,-0.10796725004911423
1772740790786622200,3.519622314453125,-1.2982031106948853,0.2160872220993042,-0.11209046840667725
1772740790805394700,3.538394775390625,-1.26399564743042,0.07299624383449554,-0.19119518995285034
1772740790824167200,3.557167236328125,-1.2493354082107544,-0.1298050433397293,-0.3180987238883972
1772740790842939400,3.575939453125,-1.2310099601745605,-0.18050536513328552,-0.36360684037208557
1772740790861712000,3.5947119140625,-1.1609152555465698,-0.07375980913639069,-0.28007346391677856
1772740790880484000,3.613484130859375,-0.9729269742965698,0.07330167293548584,-0.04993676394224167
1772740790899256600,3.632256591796875,-0.7983773946762085,-0.004123218823224306,0.1316375881433487
1772740790918028800,3.65102880859375,-0.7146912813186646,-0.19944162666797638,0.08948912471532822
1772740790936801300,3.66980126953125,-0.6859814524650574,-0.2718270421028137,-0.020616095513105392
1772740790955573500,3.688573486328125,-0.6549809575080872,-0.10384403169155121,0.020157959312200546
1772740790974346000,3.707345947265625,-0.5725166201591492,0.13805148005485535,0.26785650849342346
1772740790993118200,3.7261181640625,-0.4456130862236023,0.28938889503479004,0.6068767309188843
1772740791011890700,3.744890625,-0.3313846290111542,0.16553960740566254,0.8599202036857605
1772740791030649900,3.76364990234375,-0.2530434727668762,-0.09575030952692032,0.9917105436325073
1772740791049435400,3.782435302734375,-0.27060532569885254,-0.4249969720840454,0.9915578365325928
1772740791068207600,3.80120751953125,-0.4095730781555176,-0.7035433053970337,0.8455653190612793
1772740791086980000,3.81997998046875,-0.6091674566268921,-0.7963921427726746,0.5853443741798401
1772740791105752300,3.83875244140625,-0.7948650121688843,-0.6308525204658508,0.3617742955684662
1772740791124524800,3.85752490234375,-0.8950439691543579,-0.3067980408668518,0.26663482189178467
1772740791143297000,3.876297119140625,-0.901915967464447,-0.08826743066310883,0.26632940769195557
1772740791162069500,3.895069580078125,-0.8532009124755859,-0.07330167293548584,0.25625041127204895
1772740791180841700,3.913841796875,-0.8335011005401611,-0.1525591015815735,0.24281178414821625
1772740791199614200,3.9326142578125,-0.8670976758003235,-0.2582356929779053,0.1426328420639038
1772740791218386400,3.951386474609375,-0.9116895198822021,-0.2518217861652374,0.012369656935334206
1772740791237159000,3.970158935546875,-0.9446752667427063,-0.2304421216249466,-0.14339639246463776
1772740791255931400,3.988931396484375,-0.9662076234817505,-0.2748812735080719,-0.3301629424095154
1772740791274703600,4.00770361328125,-0.9747595191001892,-0.28877803683280945,-0.4005630910396576
1772740791293476000,4.02647607421875,-0.9387195110321045,-0.27533939480781555,-0.4002576768398285
1772740791312248300,4.045248291015625,-0.8709154725074768,-0.3148917555809021,-0.4390464723110199
1772740791331020800,4.064020751953125,-0.8050966858863831,-0.3831539452075958,-0.5152496695518494
1772740791349793000,4.08279296875,-0.7507312893867493,-0.40697699785232544,-0.522885262966156
1772740791368565500,4.1015654296875,-0.7036960124969482,-0.3961344361305237,-0.49264830350875854
1772740791387337700,4.120337646484375,-0.6384881138801575,-0.4039227366447449,-0.4485146105289459
1772740791406110200,4.139110107421875,-0.571294903755188,-0.4450022280216217,-0.3808632791042328
1772740791424882400,4.15788232421875,-0.5120427012443542,-0.48012593388557434,-0.33504971861839294
1772740791443655000,4.176655029296875,-0.4662291705608368,-0.4749337434768677,-0.27946263551712036
1772740791462427100,4.19542724609375,-0.4259132444858551,-0.4155288338661194,-0.13805148005485535
1772740791481199600,4.21419970703125,-0.46012070775032043,-0.4886777997016907,-0.10766182839870453
1772740791499971800,4.232971923828125,-0.5748072862625122,-0.6094728708267212,-0.3202366828918457
1772740791518744300,4.251744384765625,-0.7721109390258789,-0.6117635369300842,-0.6169557571411133
1772740791537516500,4.2705166015625,-0.9478822350502014,-0.48806697130203247,-0.80937260389328
1772740791556289000,4.2892890625,-1.0370659828186035,-0.19959434866905212,-0.7267554998397827
1772740791575061200,4.308061279296875,-0.9237537384033203,0.2298312783241272,-0.31351736187934875
1772740791593820700,4.326820556640625,-0.6368082761764526,0.6068767309188843,0.33535513281822205
1772740791612606000,4.34560595703125,-0.3187095522880554,0.6555918455123901,0.9463551044464111
1772740791631378400,4.36437841796875,-0.06337540596723557,0.37261682748794556,1.3354648351669312
1772740791650137600,4.3831376953125,0.024128466844558716,-0.05497625470161438,1.4535109996795654
1772740791668923100,4.401923095703125,-0.07085828483104706,-0.509141206741333,1.2500989437103271
1772740791687695600,4.420695556640625,-0.30160582065582275,-0.775317907333374,0.8419002294540405
1772740791706454800,4.439454833984375,-0.6276455521583557,-0.69651859998703,0.36605021357536316
1772740791725240300,4.458240234375,-0.901915967464447,-0.27091076970100403,-0.037414394319057465
1772740791744012500,4.477012451171875,-0.9768974781036377,0.2877090573310852,-0.2686200737953186
1772740791762785000,4.495784912109375,-0.8147175312042236,0.6068767309188843,-0.28816720843315125
1772740791781557200,4.51455712890625,-0.5137225389480591,0.5798467397689819,-0.10430216789245605
1772740791800329700,4.533329833984375,-0.2298312783241272,0.3179459869861603,0.11545012891292572
1772740791819102000,4.55210205078125,-0.0587940476834774,0.029167955741286278,0.2104368805885315
1772740791837874400,4.57087451171875,-0.009315420873463154,-0.1716480851173401,0.13117945194244385
1772740791856646700,4.589646728515625,-0.047798797488212585,-0.2476985603570938,-0.10521844029426575
1772740791875419100,4.608419189453125,-0.11743538826704025,-0.20219044387340546,-0.37414395809173584
1772740791894191400,4.62719140625,-0.15912571549415588,-0.11514470726251602,-0.569004237651825
1772740791912963800,4.6459638671875,-0.15362808108329773,-0.03680354729294777,-0.6577298045158386
1772740791931736000,4.664736083984375,-0.10109522193670273,0.003970507066696882,-0.612527072429657
1772740791950508500,4.683508544921875,-0.021837789565324783,0.08582404255867004,-0.4375193417072296
1772740791969280800,4.70228076171875,0.06978929787874222,0.20997874438762665,-0.23929941654205322
1772740791988053200,4.72105322265625,0.12461283802986145,0.266176700592041,-0.11270131915807724
1772740792006825700,4.73982568359375,0.1575985997915268,0.22021043300628662,-0.05925218388438225
1772740792025598000,4.758597900390625,0.1882936656475067,0.14431266486644745,0.03008422814309597
1772740792044370200,4.7773701171875,0.22494450211524963,0.07299624383449554,0.1322484314441681
1772740792063142700,4.796142578125,0.21394924819469452,-0.010078979656100273,0.19150061905384064
1772740792081915100,4.8149150390625,0.17867282032966614,-0.06200099736452103,0.1719534993171692
1772740792100687400,4.833687255859375,0.10598199814558029,-0.041384901851415634,0.08979454636573792
1772740792119459800,4.8524599609375,-0.00030542362947016954,0.07360709458589554,0.016492875292897224
1772740792138232000,4.871232177734375,-0.08032641559839249,0.1907370537519455,-0.0462716780602932
1772740792157004500,4.890004638671875,-0.11865708231925964,0.0650552362203598,-0.17653486132621765
1772740792175776800,4.90877685546875,-0.1522536724805832,-0.2163926362991333,-0.3089359998703003
1772740792194549200,4.92754931640625,-0.22906772792339325,-0.42759308218955994,-0.4727957844734192
1772740792213308400,4.946308349609375,-0.2924431264400482,-0.5015056133270264,-0.6120689511299133
1772740792232094000,4.965093994140625,-0.27854636311531067,-0.3309265077114105,-0.5166240930557251
1772740792250866200,4.9838662109375,-0.17180079221725464,-0.06887302547693253,-0.2632751762866974
1772740792269638700,5.002638671875,0.022906772792339325,0.16172181069850922,0.008704573847353458
1772740792288411000,5.021410888671875,0.2357870489358902,0.349251925945282,0.3223746418952942
1772740792307183400,5.040183349609375,0.455539345741272,0.46164780855178833,0.6644490957260132
1772740792325942500,5.058942626953125,0.6479562520980835,0.43018919229507446,0.9804098606109619
1772740792344728000,5.07772802734375,0.7676823139190674,0.2429644912481308,1.1913049221038818
1772740792363500500,5.09650048828125,0.8050966858863831,-0.0653606578707695,1.2742273807525635
1772740792382272800,5.115272705078125,0.72599196434021,-0.42331716418266296,1.2195565700531006
1772740792401045200,5.134045166015625,0.5838172435760498,-0.6696413159370422,1.0401201248168945
1772740792419817500,5.1528173828125,0.416597843170166,-0.7313368916511536,0.8252546191215515
1772740792438590000,5.17158984375,0.24632415175437927,-0.6878139972686768,0.6180247068405151
1772740792457362200,5.190362060546875,0.11010521650314331,-0.603058934211731,0.46607646346092224
1772740792476134700,5.209134765625,0.007482878863811493,-0.44103172421455383,0.43889376521110535
1772740792494907000,5.227906982421875,-0.041384901851415634,-0.19715094566345215,0.4802786707878113
1772740792513679400,5.246679443359375,-0.025655584409832954,0.09575030952692032,0.5665608048439026
1772740792532451600,5.26545166015625,0.010842538438737392,0.3089359998703003,0.5799994468688965
1772740792551224000,5.28422412109375,0.022906772792339325,0.34100547432899475,0.4950917065143585
1772740792569996300,5.302996337890625,-0.008246437646448612,0.31977853178977966,0.4187358021736145
1772740792588768800,5.321768798828125,-0.04963133856654167,0.28312769532203674,0.3414636254310608
1772740792607541200,5.340541259765625,-0.08689302206039429,0.23319093883037567,0.21654535830020905
1772740792626313500,5.3593134765625,-0.13576079905033112,0.17363333702087402,0.030695075169205666
1772740792645085700,5.378085693359375,-0.1889045089483261,0.11331216990947723,-0.1656923145055771
1772740792663858200,5.396858154296875,-0.23838314414024353,0.04367557913064957,-0.30130040645599365
1772740792682630700,5.415630615234375,-0.2432699203491211,0.012216945178806782,-0.36879903078079224
1772740792701403000,5.43440283203125,-0.22127941250801086,-0.008093725889921188,-0.42041563987731934
1772740792720175400,5.45317529296875,-0.19256959855556488,-0.06184828653931618,-0.50685054063797
1772740792738947600,5.471947509765625,-0.16691401600837708,-0.1178935244679451,-0.5489989519119263
1772740792757720000,5.490719970703125,-0.13209572434425354,-0.17531315982341766,-0.5276193022727966
1772740792776492300,5.5094921875,-0.09910997003316879,-0.2032594233751297,-0.5196782946586609
1772740792795264800,5.5282646484375,-0.11086877435445786,-0.1910424828529358,-0.5978667736053467
1772740792814037000,5.547037109375,-0.16584503650665283,-0.10598199814558029,-0.7171346545219421
1772740792832809500,5.5658095703125,-0.2238755226135254,0.0528382882475853,-0.795628547668457
1772740792851581700,5.584581787109375,-0.3014531135559082,0.09620844572782516,-0.9339854717254639
1772740792870354200,5.603354248046875,-0.38819342851638794,-0.12216944992542267,-1.2048962116241455
1772740792889113300,5.62211328125,-0.5338805317878723,-0.53143709897995,-1.3788349628448486
1772740792907899000,5.64089892578125,-0.6447492837905884,-0.7626428008079529,-1.305838704109192
1772740792926671400,5.65967138671875,-0.6806365847587585,-0.6621584296226501,-1.03828763961792
1772740792945443600,5.678443603515625,-0.6142069101333618,-0.2283041626214981,-0.7279772162437439
1772740792964216000,5.697216064453125,-0.48516544699668884,0.3313846290111542,-0.5041016936302185
1772740792982988300,5.71598828125,-0.2802261710166931,0.8008207678794861,-0.13316470384597778
1772740793001747700,5.734747802734375,-0.02748812735080719,0.917645275592804,0.4065188467502594
1772740793020533000,5.753532958984375,0.20051060616970062,0.6817055344581604,0.9181034564971924
1772740793039305500,5.772305419921875,0.2996205687522888,0.20555010437965393,1.1992459297180176
1772740793058077700,5.79107763671875,0.2536543309688568,-0.3811686933040619,1.1902358531951904
1772740793076850200,5.80985009765625,0.03405473381280899,-0.8420529365539551,0.9713998436927795
1772740793095622700,5.82862255859375,-0.3387148082256317,-1.0894460678100586,0.6061131954193115
1772740793114381800,5.8473818359375,-0.7409577369689941,-1.0584455728530884,0.17592400312423706
1772740793133167400,5.86616748046875,-1.0610417127609253,-0.6826218366622925,-0.15118469297885895
1772740793151939600,5.884939697265625,-1.19191575050354,-0.18676654994487762,-0.22540263831615448
1772740793170699000,5.903698974609375,-1.0469921827316284,0.2848075330257416,-0.03268032893538475
1772740793189484300,5.922484375,-0.7608102560043335,0.5306735634803772,0.20600824058055878
1772740793208256800,5.9412568359375,-0.5080721974372864,0.5338805317878723,0.29030516743659973
1772740793227016000,5.960015869140625,-0.3549022674560547,0.42102646827697754,0.23975755274295807
1772740793245801500,5.978801513671875,-0.3054236173629761,0.34192174673080444,0.11987877637147903
1772740793264573700,5.99757373046875,-0.28969430923461914,0.31412819027900696,-0.01832541823387146
1772740793283346200,6.01634619140625,-0.2658712565898895,0.25976279377937317,-0.14797775447368622
1772740793302118400,6.035118408203125,-0.1969982385635376,0.19318044185638428,-0.2761029601097107
1772740793320891000,6.053890869140625,-0.07375980913639069,0.12491826713085175,-0.38697174191474915
1772740793339663400,6.072663330078125,0.0459662564098835,0.041232191026210785,-0.4497362971305847
1772740793358435600,6.091435546875,0.14049486815929413,-0.0198525357991457,-0.4659237563610077
1772740793377208000,6.1102080078125,0.20646637678146362,-0.025808297097682953,-0.4912739098072052
1772740793395980300,6.128980224609375,0.2533488869667053,0.04214845970273018,-0.5401417016983032
1772740793414752800,6.147752685546875,0.2782409191131592,0.1313321590423584,-0.6383354067802429
1772740793433525000,6.16652490234375,0.3026748299598694,0.17561858892440796,-0.7146912813186646
1772740793452297500,6.18529736328125,0.33260634541511536,0.13331741094589233,-0.7368345260620117
1772740793471069700,6.204069580078125,0.37475478649139404,0.011300674639642239,-0.6781931519508362
1772740793489842200,6.22284228515625,0.42072105407714844,-0.08490777015686035,-0.45172154903411865
1772740793508614400,6.241614501953125,0.4769189953804016,0.0068720318377017975,-0.11468657106161118
1772740793527387000,6.260386962890625,0.5470137000083923,0.2367033064365387,0.09590301662683487
1772740793546159400,6.279159423828125,0.6018372774124146,0.3903313875198364,0.11972606182098389
1772740793564931600,6.297931640625,0.5835118293762207,0.3658975064754486,0.042759306728839874
1772740793583704000,6.3167041015625,0.4859289824962616,0.14675605297088623,-0.20035789906978607
1772740793602476300,6.335476318359375,0.32603973150253296,-0.12583453953266144,-0.4268295168876648
1772740793621235700,6.354235595703125,0.15775130689144135,-0.2918322682380676,-0.504865288734436
1772740793640021000,6.37302099609375,0.07666133344173431,-0.42072105407714844,-0.49952033162117004
1772740793658793500,6.39179345703125,0.04199574887752533,-0.4109475016593933,-0.3002314269542694
1772740793677565700,6.410565673828125,0.06948387622833252,-0.21211670339107513,-0.0024433890357613564
1772740793696338200,6.429338134765625,0.1644706279039383,0.10185877978801727,0.2680092453956604
1772740793715110700,6.448110595703125,0.2779355049133301,0.42331716418266296,0.50853031873703
1772740793733869800,6.466869873046875,0.42133188247680664,0.6529957056045532,0.7983773946762085
1772740793752655400,6.4856552734375,0.5856497883796692,0.6862868666648865,1.0870027542114258
1772740793771427600,6.504427490234375,0.7084301114082336,0.4031592011451721,1.239714503288269
1772740793790187000,6.52318701171875,0.7404996156692505,-0.09712471067905426,1.2284138202667236
1772740793808972300,6.54197216796875,0.6461237072944641,-0.577861487865448,1.1047172546386719
1772740793827744800,6.560744873046875,0.48989951610565186,-0.8275453448295593,0.9797990322113037
1772740793846517000,6.57951708984375,0.31000497937202454,-0.9063445925712585,0.8753440976142883
1772740793865289500,6.59828955078125,0.14996300637722015,-0.8324320912361145,0.7811209559440613
1772740793884061700,6.617061767578125,0.009468132629990578,-0.5580089688301086,0.7742488980293274
1772740793902834200,6.635834228515625,-0.05360184609889984,-0.15118469297885895,0.8063184022903442
1772740793921606700,6.654606689453125,-0.038483377546072006,0.27442312240600586,0.7774558663368225
1772740793940379000,6.67337890625,-0.002748812548816204,0.5505260825157166,0.6627692580223083
1772740793959138000,6.692137939453125,0.004581354558467865,0.6490252017974854,0.5804576277732849
1772740793977923600,6.710923583984375,-0.013744063675403595,0.5864133834838867,0.5079194903373718
1772740793996696000,6.729696044921875,-0.03634541109204292,0.44484952092170715,0.40102121233940125
1772740794015468300,6.74846826171875,-0.07589777559041977,0.2843494117259979,0.25472331047058105
1772740794034240800,6.76724072265625,-0.13087402284145355,0.16004198789596558,0.09605573117733002
1772740794053013000,6.786012939453125,-0.18523943424224854,0.0988045409321785,-0.04474456235766411
1772740794071785500,6.804785400390625,-0.21211670339107513,0.10781454294919968,-0.17241163551807404
1772740794090557700,6.8235576171875,-0.19501298666000366,0.14736689627170563,-0.27839362621307373
1772740794109330200,6.842330078125,-0.14874130487442017,0.15530791878700256,-0.31321191787719727
1772740794128102700,6.8611025390625,-0.1053711548447609,0.08948912471532822,-0.3187095522880554
1772740794146875000,6.879875,-0.06872031837701797,-0.0981936976313591,-0.33886751532554626
1772740794165647400,6.8986474609375,-0.04963133856654167,-0.33978378772735596,-0.31031039357185364
1772740794184419600,6.917419677734375,-0.04092676565051079,-0.48608171939849854,-0.28098973631858826
1772740794203192000,6.936192138671875,-0.04214845970273018,-0.49448084831237793,-0.3552076816558838
1772740794221964300,6.95496435546875,-0.07406523078680038,-0.4143071472644806,-0.47920966148376465
1772740794240736800,6.97373681640625,-0.19256959855556488,-0.41140562295913696,-0.6792621612548828
1772740794259509000,6.992509033203125,-0.34940463304519653,-0.5041016936302185,-0.9587247967720032
1772740794278281500,7.011281494140625,-0.5410579442977905,-0.4978405237197876,-1.1824475526809692
1772740794297053700,7.0300537109375,-0.6943806409835815,-0.37475478649139404,-1.3253858089447021
1772740794315826200,7.048826171875,-0.7627955079078674,-0.24311721324920654,-1.4249539375305176
1772740794334598400,7.067598388671875,-0.733474850654602,-0.16813570261001587,-1.3823473453521729
1772740794353371000,7.086370849609375,-0.6413896083831787,-0.0787992998957634,-1.1176977157592773
1772740794372143400,7.105143310546875,-0.47890424728393555,0.06154286116361618,-0.6725428104400635
1772740794390915600,7.12391552734375,-0.2786990702152252,0.21272756159305573,-0.26907822489738464
1772740794409674800,7.1426748046875,-0.09743013978004456,0.18997350335121155,-0.05008947476744652
1772740794428460300,7.161460205078125,-0.0021379655227065086,0.04734066128730774,0.091321662068367
1772740794447232800,7.180232666015625,-0.02748812735080719,-0.2522799074649811,0.1053711548447609
1772740794466005000,7.1990048828125,-0.18600298464298248,-0.6198572516441345,0.018630841746926308
1772740794484777500,7.217777587890625,-0.46485477685928345,-0.8602256774902344,-0.1372879147529602
1772740794503549700,7.2365498046875,-0.7882983684539795,-0.7797465324401855,-0.3574983477592468
1772740794522309000,7.25530908203125,-1.050351858139038,-0.33230090141296387,-0.5334223508834839
1772740794541094400,7.274094482421875,-1.1459494829177856,0.23319093883037567,-0.5253286361694336
1772740794559867000,7.292866943359375,-1.0221002101898193,0.6209262609481812,-0.28037887811660767
1772740794578626000,7.3116259765625,-0.7980719208717346,0.684148907661438,0.02748812735080719
1772740794597411600,7.33041162109375,-0.638029932975769,0.5190674662590027,0.2360924631357193
1772740794616184000,7.34918408203125,-0.5848862528800964,0.3365768492221832,0.3187095522880554
1772740794634956300,7.367956298828125,-0.6103891134262085,0.18462859094142914,0.2602209448814392
1772740794653728800,7.386728759765625,-0.6647545099258423,0.10888352245092392,0.11972606182098389
1772740794672501000,7.4055009765625,-0.705681324005127,0.13744063675403595,-0.02870982140302658
1772740794691273500,7.4242734375,-0.7319477200508118,0.1847812980413437,-0.16095824539661407
1772740794710045700,7.443045654296875,-0.7192726731300354,0.23166382312774658,-0.2707580327987671
1772740794728818200,7.461818115234375,-0.6748335361480713,0.296108216047287,-0.3449759781360626
1772740794747590400,7.48059033203125,-0.6332958936691284,0.3736858069896698,-0.3668137788772583
1772740794766363000,7.49936279296875,-0.6016845703125,0.5030327439308167,-0.3840702176094055
1772740794785135000,7.518135009765625,-0.48516544699668884,0.5676298141479492,-0.4143071472644806
1772740794803907600,7.536907470703125,-0.3130592107772827,0.4903576374053955,-0.33856210112571716
1772740794822679800,7.5556796875,-0.11086877435445786,0.2721324563026428,-0.16309621930122375
1772740794841452300,7.574452392578125,0.09559759497642517,0.0390942245721817,0.06368082761764526
1772740794860224500,7.593224609375,0.2513636350631714,-0.06734590977430344,0.26495498418807983
1772740794878997000,7.6119970703125,0.31412819027900696,0.02901524491608143,0.3962871730327606
1772740794897769500,7.63076953125,0.2964136302471161,0.04092676565051079,0.41705596446990967
1772740794916541700,7.649541748046875,0.23242738842964172,-0.06398624926805496,0.3614688515663147
1772740794935314200,7.668314208984375,0.12690351903438568,-0.2576248347759247,0.15393351018428802
1772740794954086400,7.68708642578125,-0.06719319522380829,-0.4503471553325653,-0.07055285573005676
1772740794972845800,7.705845703125,-0.26663482189178467,-0.4506525695323944,-0.0910162404179573
1772740794991631000,7.724631103515625,-0.41384902596473694,-0.24159009754657745,0.045202698558568954
1772740795010403600,7.743403564453125,-0.4566083252429962,0.11560284346342087,0.19821994006633759
1772740795029175800,7.76217578125,-0.39949411153793335,0.49493899941444397,0.29290124773979187
1772740795047948300,7.7809482421875,-0.2970244884490967,0.7379034757614136,0.4259132444858551
1772740795066720500,7.799720458984375,-0.15240639448165894,0.7911999225616455,0.6435275673866272
1772740795085480000,7.81847998046875,-0.013591351918876171,0.6503996253013611,0.8962656259536743
1772740795104265200,7.83726513671875,0.07742489129304886,0.314586341381073,1.0943328142166138
1772740795123037700,7.85603759765625,0.10888352245092392,-0.16691401600837708,1.147171139717102
1772740795141810000,7.874809814453125,0.13713520765304565,-0.6253548860549927,1.0931111574172974
1772740795160582400,7.89358251953125,0.1244601309299469,-0.9042066335678101,1.005301833152771
1772740795179354600,7.912354736328125,0.05619794875383377,-0.930014967918396,0.953227162361145
1772740795198127000,7.931127197265625,-0.04153761267662048,-0.8266290426254272,0.9072608947753906
1772740795216899600,7.949899658203125,-0.14721418917179108,-0.6894938349723816,0.8162446618080139
1772740795235671800,7.968671875,-0.2504473626613617,-0.47172680497169495,0.6939224600791931
1772740795254444000,7.987444091796875,-0.3348970115184784,-0.17393875122070312,0.6259657144546509
1772740795273216500,8.006216552734376,-0.38941511511802673,0.1104106456041336,0.603975236415863
1772740795291989000,8.024989013671876,-0.39918869733810425,0.22845686972141266,0.5312843918800354
1772740795310748200,8.043748046875,-0.40468630194664,0.19211146235466003,0.46073153614997864
1772740795329533700,8.06253369140625,-0.4327852725982666,0.04963133856654167,0.37536564469337463
1772740795348306000,8.081305908203126,-0.4637857675552368,-0.09147437661886215,0.22876229882240295
1772740795367078400,8.100078369140626,-0.5267030596733093,-0.1973036676645279,0.039857782423496246
1772740795385850600,8.1188505859375,-0.5963396430015564,-0.2360924631357193,-0.111021488904953
1772740795404623000,8.137623046875,-0.6676560640335083,-0.2435753494501114,-0.15301723778247833
1772740795423395300,8.156395263671875,-0.712247908115387,-0.26877278089523315,-0.13652436435222626
1772740795442167800,8.175167724609375,-0.7214106321334839,-0.3578037917613983,-0.14721418917179108
1772740795460940000,8.19393994140625,-0.7493568658828735,-0.45477578043937683,-0.16584503650665283
1772740795479712500,8.21271240234375,-0.8163973689079285,-0.5401417016983032,-0.17363333702087402
1772740795498484700,8.231484619140625,-0.9177979826927185,-0.6050441861152649,-0.23807771503925323
1772740795517257200,8.25025732421875,-1.0373713970184326,-0.5633538961410522,-0.3379512429237366
1772740795536029400,8.269029541015625,-1.1570974588394165,-0.474475622177124,-0.4077405333518982
1772740795554802000,8.287802001953125,-1.2717839479446411,-0.38849884271621704,-0.44576579332351685
1772740795573574100,8.30657421875,-1.3414205312728882,-0.29351210594177246,-0.47050508856773376
1772740795592346600,8.3253466796875,-1.4189982414245605,-0.31687700748443604,-0.5661026835441589
1772740795611119000,8.344119140625,-1.5856068134307861,-0.497229665517807,-0.7814263701438904
1772740795629891300,8.362891357421875,-1.8119256496429443,-0.718814492225647,-1.0553913116455078
1772740795648663600,8.38166357421875,-2.010298252105713,-0.8092198967933655,-1.265522837638855
1772740795667436000,8.40043603515625,-2.1017727851867676,-0.7560762166976929,-1.295607089996338
1772740795686208500,8.41920849609375,-2.021904468536377,-0.5871769189834595,-1.121057391166687
1772740795704980700,8.437980712890624,-1.7968071699142456,-0.32817769050598145,-0.8955020904541016
1772740795723753200,8.456753173828124,-1.5894246101379395,-0.16721943020820618,-0.7249229550361633
1772740795742525400,8.475525390625,-1.5497194528579712,-0.18585027754306793,-0.594507098197937
1772740795761298000,8.4942978515625,-1.6137057542800903,-0.2641914486885071,-0.4747810363769531
1772740795780070100,8.513070068359376,-1.6899089813232422,-0.3190149664878845,-0.40636613965034485
1772740795798842600,8.531842529296876,-1.7893242835998535,-0.3570402264595032,-0.41736137866973877
1772740795817614800,8.55061474609375,-1.938218355178833,-0.3855973184108734,-0.49677154421806335
1772740795836387300,8.56938720703125,-2.105437755584717,-0.3939964771270752,-0.6036698222160339
1772740795855159600,8.58815966796875,-2.2349374294281006,-0.293664813041687,-0.6508577466011047
1772740795873932000,8.60693212890625,-2.2637999057769775,-0.08964183181524277,-0.6384881138801575
1772740795892704300,8.625704345703125,-2.2053112983703613,0.07375980913639069,-0.5746545791625977
1772740795911476700,8.644476806640625,-2.1306352615356445,0.08108997344970703,-0.46332764625549316
1772740795930249000,8.6632490234375,-2.0866541862487793,0.05741964280605316,-0.37796175479888916
1772740795949021400,8.682021484375,-2.0634419918060303,0.0841442123055458,-0.3461976945400238
1772740795967793700,8.700793701171875,-2.045727491378784,0.1241547018289566,-0.35322242975234985
1772740795986566100,8.719566162109375,-2.0263330936431885,0.1385096162557602,-0.3695625960826874
1772740796005338400,8.73833837890625,-2.0000665187835693,0.14125843346118927,-0.35291701555252075
1772740796024110800,8.75711083984375,-1.9566965103149414,0.11377029865980148,-0.3158080279827118
1772740796042883300,8.77588330078125,-1.9059962034225464,0.08887827396392822,-0.2733541429042816
1772740796061655600,8.794655517578125,-1.857128381729126,0.10338589549064636,-0.24510246515274048
1772740796080428000,8.813427978515625,-1.8133001327514648,0.12934690713882446,-0.21150586009025574
1772740796099200300,8.8322001953125,-1.7699298858642578,0.17348061501979828,-0.16080553829669952
1772740796117972700,8.85097265625,-1.711288571357727,0.1829487532377243,-0.12888877093791962
1772740796136745000,8.869744873046875,-1.633100152015686,0.10705098509788513,-0.05070032179355621
1772740796155517400,8.888517333984375,-1.5439164638519287,-0.007635590620338917,0.04932591691613197
1772740796174289700,8.90728955078125,-1.4554963111877441,-0.11667182296514511,0.12064233422279358
1772740796193062100,8.926062255859375,-1.4315205812454224,-0.2858765125274658,0.042606595903635025
1772740796211834400,8.94483447265625,-1.4614521265029907,-0.386208176612854,-0.07070557028055191
1772740796230606800,8.96360693359375,-1.521315097808838,-0.27442312240600586,-0.003970507066696882
1772740796249379000,8.982379150390624,-1.4585505723953247,0.05482354015111923,0.1954711228609085
1772740796268151600,9.001151611328124,-1.3079767227172852,0.3196258246898651,0.38880428671836853
1772740796286923800,9.019923828125,-1.1711468696594238,0.26464956998825073,0.4628695249557495
1772740796305696300,9.0386962890625,-1.1270132064819336,-0.012675080448389053,0.434617817401886
1772740796324468500,9.057468505859376,-1.1642749309539795,-0.28221142292022705,0.3584146201610565
1772740796343241000,9.076240966796876,-1.3417259454727173,-0.4543176591396332,0.35230615735054016
1772740796362013200,9.09501318359375,-1.5283398628234863,-0.4695888161659241,0.46393850445747375
1772740796380785700,9.11378564453125,-1.5953803062438965,-0.35917818546295166,0.6650599241256714
1772740796399558000,9.132557861328126,-1.5020734071731567,-0.20631365478038788,0.8745805621147156
1772740796418330400,9.151330322265625,-1.3556227684020996,-0.1582094430923462,0.9542961120605469
1772740796437102800,9.170102783203125,-1.2384928464889526,-0.2214321345090866,0.9573503732681274
1772740796455875000,9.188875,-1.1835166215896606,-0.3584146201610565,0.9103151559829712
1772740796474647600,9.2076474609375,-1.2096302509307861,-0.4885250926017761,0.8043331503868103
1772740796493419800,9.226419677734375,-1.265828251838684,-0.4556920528411865,0.6476507782936096
1772740796512192300,9.245192138671875,-1.2928582429885864,-0.31168481707572937,0.48516544699668884
1772740796530964500,9.263964599609375,-1.2624685764312744,-0.14965757727622986,0.3764346241950989
1772740796549737000,9.282737060546875,-1.1874871253967285,-0.05375456064939499,0.32573428750038147
1772740796568509200,9.30150927734375,-1.1112838983535767,-0.032222192734479904,0.30985227227211
1772740796587281700,9.32028173828125,-1.0434798002243042,-0.06902574002742767,0.28633466362953186
1772740796606054000,9.339053955078125,-0.9819369912147522,-0.13179029524326324,0.2151709496974945
1772740796624826400,9.357826416015625,-0.9171871542930603,-0.18340688943862915,0.10460758954286575
1772740796643598600,9.3765986328125,-0.8696937561035156,-0.19974705576896667,-0.002748812548816204
1772740796662371000,9.39537109375,-0.8354863524436951,-0.22463907301425934,-0.08154810965061188
1772740796681143300,9.414143310546875,-0.8159392476081848,-0.2570139765739441,-0.12247487902641296
1772740796699915800,9.432915771484375,-0.8092198967933655,-0.2845021188259125,-0.16905197501182556
1772740796718688000,9.45168798828125,-0.7941014170646667,-0.27503398060798645,-0.22311195731163025
1772740796737460500,9.47046044921875,-0.758672297000885,-0.2617480456829071,-0.2654131352901459
1772740796756232700,9.489232666015624,-0.7244648337364197,-0.2489202618598938,-0.2990097403526306
1772740796775005200,9.508005126953124,-0.6975875496864319,-0.29381752014160156,-0.33230090141296387
1772740796793777400,9.52677734375,-0.6988092660903931,-0.4590517282485962,-0.3584146201610565
1772740796812550000,9.5455498046875,-0.7243121266365051,-0.6270347237586975,-0.3906368315219879
1772740796831322000,9.564322021484376,-0.7798992395401001,-0.5619794726371765,-0.44072631001472473
1772740796850094600,9.583094482421876,-0.856407880783081,-0.26006820797920227,-0.4679090082645416
1772740796868867000,9.6018671875,-0.873511552810669,-0.07360709458589554,-0.48928865790367126
1772740796887639300,9.620639404296876,-0.8498412370681763,-0.18646112084388733,-0.6612421870231628
1772740796906411500,9.63941162109375,-0.8730534315109253,-0.29229041934013367,-0.8922951221466064
1772740796925184000,9.65818408203125,-1.0744802951812744,-0.34070006012916565,-1.0665392875671387
1772740796943956200,9.676956298828125,-1.3117945194244385,-0.3755183517932892,-1.1545013189315796
1772740796962728700,9.695728759765625,-1.427702784538269,-0.2551814317703247,-1.0100359916687012
1772740796981501200,9.714501220703125,-1.3582189083099365,-0.015271181240677834,-0.6587987542152405
1772740797000273400,9.7332734375,-1.1512943506240845,0.20020519196987152,-0.3402419090270996
1772740797019046000,9.7520458984375,-0.998735249042511,0.2722851634025574,-0.20219044387340546
1772740797037818000,9.770818115234375,-0.9700254201889038,0.24724042415618896,-0.17378604412078857
1772740797056590600,9.789590576171875,-1.0315682888031006,0.12308572232723236,-0.21807247400283813
1772740797075362800,9.80836279296875,-1.1450332403182983,-0.08948912471532822,-0.30695074796676636
1772740797094135300,9.82713525390625,-1.3098092079162598,-0.18096350133419037,-0.43354883790016174
1772740797112907500,9.845907470703125,-1.4489296674728394,-0.13927318155765533,-0.5729747414588928
1772740797131680000,9.864679931640625,-1.4887875318527222,-0.01954711228609085,-0.6551336646080017
1772740797150452200,9.8834521484375,-1.4296879768371582,0.13530266284942627,-0.6771242022514343
1772740797169224700,9.902224609375,-1.2777397632598877,0.1832541823387146,-0.6006155610084534
1772740797187997000,9.920996826171875,-1.1097567081451416,0.17118994891643524,-0.39857783913612366
1772740797206769400,9.939769287109375,-0.9449806809425354,0.09009996801614761,-0.1901262104511261
1772740797225541600,9.958541748046875,-0.8466343283653259,0.051616594195365906,-0.08292251825332642
1772740797244314000,9.977314208984374,-0.8393041491508484,0.0984991192817688,-0.07696675509214401
1772740797263086300,9.99608642578125,-0.869846522808075,0.15469707548618317,-0.10399674624204636
1772740797281858800,10.01485888671875,-0.8435800671577454,0.1256818175315857,-0.12827792763710022
1772740797300631000,10.033631103515624,-0.7863131165504456,0.07543963938951492,-0.15149012207984924
1772740797319403500,10.052403564453124,-0.7356128096580505,-0.004886778071522713,-0.1122431829571724
1772740797338175700,10.07117578125,-0.6794148683547974,0.11147962510585785,-0.061084724962711334
1772740797356948200,10.0899482421875,-0.6252021789550781,0.20936790108680725,0.008399149402976036
1772740797375720400,10.108720458984376,-0.5806103348731995,0.2870981991291046,0.0781884491443634
