time,seconds_elapsed,z,y,x
1772556912343605200,0.274605224609375,-0.02642822265625,0.006275080144405365,-0.002329200506210327
1772556912362378800,0.293378662109375,-0.024036407470703125,0.014289654791355133,-0.013337858021259308
1772556912381152500,0.312152587890625,-0.031217575073242188,0.009623173624277115,-0.014507561922073364
1772556912399926000,0.330926025390625,-0.02762603759765625,0.006098650395870209,-0.019062981009483337
1772556912418699800,0.34969970703125,-0.028821945190429688,0.007192365825176239,-0.008205875754356384
1772556912437473300,0.368473388671875,-0.03480815887451172,0.0005622692406177521,0.00966382771730423
1772556912456247000,0.3872470703125,-0.026429176330566406,-0.010256994515657425,0.010045692324638367
1772556912475020500,0.4060205078125,-0.02403545379638672,0.002920914441347122,0.004871949553489685
1772556912493794000,0.4247939453125,-0.03002166748046875,0.001229751855134964,-0.0034439265727996826
1772556912512567800,0.44356787109375,-0.03840160369873047,0.008103646337985992,-0.015686139464378357
1772556912531341300,0.46234130859375,-0.024038314819335938,0.010395009070634842,-0.019305594265460968
1772556912550115000,0.481114990234375,-0.02763080596923828,0.01857632026076317,-0.024326734244823456
1772556912568888600,0.499888671875,-0.03241920471191406,0.003060363233089447,-0.00963449478149414
1772556912587662000,0.518662109375,-0.024042129516601562,-0.012107491493225098,0.0058914124965667725
1772556912606435800,0.537435791015625,-0.03361988067626953,-0.010761421173810959,0.017938420176506042
1772556912625209300,0.556209228515625,-0.026434898376464844,-0.015529375523328781,0.012141935527324677
1772556912643982800,0.57498291015625,-0.031223297119140625,-0.015322834253311157,0.01436934620141983
1772556912662756600,0.593756591796875,-0.027632713317871094,-0.004492040723562241,0.008160792291164398
1772556912681530000,0.612530029296875,-0.02045154571533203,0.007027436047792435,-0.010071054100990295
1772556912700304000,0.631303955078125,-0.03197288513183594,0.019929181784391403,-0.014124616980552673
1772556912719077400,0.650077392578125,-0.022247314453125,0.004834629595279694,-0.020066551864147186
1772556912737851000,0.668850830078125,-0.01745891571044922,0.02147553488612175,-0.021275140345096588
1772556912756624600,0.687624755859375,-0.02703571319580078,0.009465523064136505,-0.014012657105922699
1772556912775398100,0.706398193359375,-0.02823162078857422,-0.0055908262729644775,0.001739010214805603
1772556912794172000,0.725171875,-0.02942943572998047,-0.011370018124580383,0.017282657325267792
1772556912812945400,0.7439453125,-0.03661155700683594,-0.012359675019979477,0.021938711404800415
1772556912831719000,0.762718994140625,-0.03302192687988281,-0.014694884419441223,0.01836523413658142
1772556912850492700,0.78149267578125,-0.022249221801757812,-0.00652042031288147,0.014661885797977448
1772556912869266200,0.80026611328125,-0.030628204345703125,0.006289977580308914,-0.000952497124671936
1772556912888039700,0.819039794921875,-0.029580116271972656,0.009671829640865326,-0.010541796684265137
1772556912906813400,0.8378134765625,-0.030028343200683594,0.019018296152353287,-0.021475009620189667
1772556912925587000,0.8565869140625,-0.025239944458007812,0.015515204519033432,-0.019989006221294403
1772556912944360400,0.8753603515625,-0.028832435607910156,0.01051744818687439,-0.021102920174598694
1772556912963134200,0.89413427734375,-0.032423973083496094,0.005906365811824799,-0.0045080482959747314
1772556912981907700,0.91290771484375,-0.020453453063964844,0.00042556971311569214,0.008940823376178741
1772556913000681500,0.931681396484375,-0.02524280548095703,-0.006699305027723312,0.011147581040859222
1772556913019455000,0.950455078125,-0.03841114044189453,-0.01376594603061676,0.011222295463085175
1772556913038228500,0.969228515625,-0.019257545471191406,-0.007553078234195709,0.0121937096118927
1772556913057002200,0.988002197265625,-0.13311767578125,0.006524037569761276,-0.04566432535648346
1772556913075775700,1.006775634765625,0.06468772888183594,-0.0029369518160820007,0.03755224123597145
1772556913094549200,1.02554931640625,-0.06339168548583984,-0.007031150162220001,-0.034125544130802155
1772556913113323000,1.044322998046875,-0.0030984878540039062,0.016552388668060303,0.013985522091388702
1772556913132096500,1.063096435546875,0.022039413452148438,0.01721956580877304,-0.022053949534893036
1772556913150870000,1.0818701171875,-0.039005279541015625,0.00685051828622818,-0.018111571669578552
1772556913169643800,1.100643798828125,-0.01865673065185547,0.017628967761993408,-0.005145043134689331
1772556913188417300,1.119417236328125,-0.0461883544921875,0.005806054919958115,0.00596608966588974
1772556913207190800,1.138190673828125,-0.042595863342285156,-0.013229236006736755,0.003909952938556671
1772556913225964500,1.156964599609375,0.0052852630615234375,-0.009393546730279922,0.018253087997436523
1772556913244738000,1.175738037109375,-0.021048545837402344,-0.01920606568455696,0.00407690554857254
1772556913263511600,1.194511474609375,-0.0306243896484375,0.008171185851097107,0.0010693147778511047
1772556913282285300,1.213285400390625,-0.037807464599609375,0.0010627508163452148,-0.009529031813144684
1772556913301058800,1.232058837890625,-0.03676128387451172,0.019795112311840057,-0.023002274334430695
1772556913319832300,1.250832275390625,-0.010426521301269531,0.017336320132017136,-0.01932523399591446
1772556913338606000,1.269606201171875,-0.0008487701416015625,0.025069449096918106,-0.008807078003883362
1772556913357379600,1.288379638671875,-0.10499000549316406,-0.03894512727856636,-0.024418219923973083
1772556913376153000,1.307153076171875,0.017107009887695312,0.02607087418437004,0.0306541845202446
1772556913394926600,1.325926513671875,-0.060550689697265625,-0.016924574971199036,-0.004465408623218536
1772556913413700400,1.344700439453125,-0.010277748107910156,0.0026197023689746857,0.014403097331523895
1772556913432473900,1.363473876953125,-0.031823158264160156,-0.009795423597097397,-0.003361240029335022
1772556913451247400,1.382247314453125,-0.014017105102539062,0.016980506479740143,0.011693574488162994
1772556913470021000,1.401021240234375,-0.050972938537597656,-0.009835556149482727,-0.01990388333797455
1772556913488794600,1.419794677734375,-0.018802642822265625,0.02376319095492363,-0.01084291934967041
1772556913507568000,1.438568115234375,-0.02464008331298828,0.00787869468331337,-0.021621793508529663
1772556913526342000,1.457341796875,-0.02942657470703125,0.0167551189661026,-0.006166450679302216
1772556913545115400,1.476115478515625,-0.021047592163085938,-0.0024907179176807404,-0.013058699667453766
1772556913563889000,1.494888916015625,-0.0306243896484375,-0.002339642494916916,0.0026914700865745544
1772556913582662400,1.513662353515625,-0.03541278839111328,-0.004843518137931824,0.0086001455783844
1772556913601436200,1.532436279296875,-0.023441314697265625,-0.008281178772449493,0.011178776621818542
1772556913620209700,1.551209716796875,-0.027034759521484375,-0.01207292452454567,0.006166189908981323
1772556913638983200,1.569983154296875,-0.010275840759277344,0.01430961862206459,0.002259485423564911
1772556913657757000,1.5887568359375,-0.05337047576904297,0.0005993247032165527,-0.02054557204246521
1772556913676530400,1.607530517578125,-0.0198516845703125,0.019984301179647446,-0.013409100472927094
1772556913695304000,1.626303955078125,-0.02464008331298828,0.00905611366033554,-0.019156843423843384
1772556913714077400,1.645077392578125,-0.03062725067138672,0.009443387389183044,-0.0028240755200386047
1772556913732851200,1.663851318359375,-0.030628204345703125,-0.0024703145027160645,-0.00020220130681991577
1772556913751624700,1.682624755859375,-0.02703380584716797,-0.0008618421852588654,0.009522244334220886
1772556913770398200,1.701398193359375,-0.02942657470703125,-0.011666655540466309,0.003725409507751465
1772556913789171700,1.720171630859375,-0.027032852172851562,0.006079491227865219,-0.00021774321794509888
1772556913807945500,1.738945556640625,-0.028230667114257812,0.003362555056810379,-0.004605822265148163
1772556913826719000,1.757718994140625,-0.024639129638671875,0.010537847876548767,-0.005908176302909851
1772556913845492500,1.776492431640625,-0.030622482299804688,0.007110424339771271,-0.010705381631851196
1772556913864266200,1.795266357421875,-0.0258331298828125,-0.0003734305500984192,-0.01774170994758606
1772556913883039700,1.814039794921875,-0.022243499755859375,0.003869876265525818,-0.0034470409154891968
1772556913901813200,1.832813232421875,-0.027032852172851562,0.0025770477950572968,-0.002525918185710907
1772556913920586800,1.851586669921875,-0.031821250915527344,0.003883451223373413,-0.00020331144332885742
1772556913939360500,1.870360595703125,-0.019847869873046875,-0.0021023042500019073,-0.001039855182170868
1772556913958134000,1.889134033203125,-0.02104663848876953,0.001392614096403122,-0.0023625940084457397
1772556913976907500,1.907907470703125,-0.02703094482421875,0.005035400390625,-0.007310740649700165
1772556913995681000,1.926680908203125,-0.02703094482421875,0.00503188744187355,-0.009508475661277771
1772556914014454800,1.945454833984375,-0.02942657470703125,0.0062246173620224,-0.012079082429409027
1772556914033228300,1.964228271484375,-0.02942657470703125,0.000499241054058075,-0.0015251412987709045
1772556914052001800,1.983001708984375,-0.01865386962890625,-0.007764216512441635,-0.0057819560170173645
1772556914070775300,2.001775390625,-0.02104663848876953,0.0030063651502132416,-0.0037370920181274414
1772556914089549000,2.020549072265625,-0.024636268615722656,0.003022104501724243,-0.006347768008708954
1772556914108322600,2.039322509765625,-0.03421497344970703,0.006814215332269669,-0.00533139705657959
1772556914127096000,2.058095947265625,-0.018654823303222656,-0.0017722845077514648,-0.007641114294528961
1772556914145869600,2.07686962890625,-0.021048545837402344,0.0030129551887512207,-0.004062481224536896
1772556914164643300,2.095643310546875,-0.03421592712402344,-0.002821974456310272,0.003252178430557251
1772556914183416800,2.114416748046875,-0.02583599090576172,-0.0025582313537597656,0.00693511962890625
1772556914202190300,2.1331904296875,-0.024637222290039062,0.0021347925066947937,-0.00041222572326660156
1772556914220963800,2.1519638671875,-0.029425621032714844,0.00925382599234581,-0.0030065327882766724
1772556914239737300,2.1707373046875,-0.03421306610107422,0.00690951943397522,-0.0111866295337677
1772556914258511000,2.189510986328125,-0.028226852416992188,0.011502671986818314,-0.014932267367839813
1772556914277284600,2.20828466796875,-0.024636268615722656,0.010596644133329391,-0.009946368634700775
1772556914296058000,2.22705810546875,-0.033016204833984375,0.0009063109755516052,-0.007617972791194916
1772556914314831600,2.24583154296875,-0.023438453674316406,-0.004814475774765015,0.0011201351881027222
1772556914333605400,2.26460546875,-0.019845008850097656,0.006047405302524567,0.009233556687831879
1772556914352379000,2.28337890625,-0.04019641876220703,0.0056861452758312225,-0.003945760428905487
1772556914371152400,2.30215234375,-0.04139232635498047,-0.00024450570344924927,-0.00021929293870925903
1772556914389926000,2.32092578125,-0.021042823791503906,0.0033993758261203766,-0.0025704577565193176
1772556914408699600,2.33969970703125,-0.036604881286621094,0.005786951631307602,-0.003984712064266205
1772556914427473200,2.35847314453125,-0.04019737243652344,0.0008848272264003754,-0.0036414340138435364
1772556914446246700,2.37724658203125,-0.018647193908691406,0.00557369738817215,-0.007129281759262085
1772556914465020200,2.396020263671875,-0.03780078887939453,0.004670199006795883,0.0021315813064575195
1772556914483793700,2.414793701171875,-0.02702808380126953,-0.00015578418970108032,-0.0013803467154502869
1772556914502567200,2.433567138671875,-0.028223037719726562,0.002178344875574112,-0.0059531331062316895
1772556914521341000,2.4523408203125,-0.028223037719726562,-0.0014118105173110962,0.0002592504024505615
1772556914540114400,2.471114501953125,-0.02343463897705078,0.005821548402309418,-0.003643728792667389
1772556914558888000,2.489887939453125,-0.035407066345214844,-0.009695343673229218,0.0036698058247566223
1772556914577661400,2.508661376953125,-0.034211158752441406,-0.003858804702758789,-0.0024399831891059875
1772556914596435200,2.527435302734375,-0.016257286071777344,0.010495796799659729,-0.001724839210510254
1772556914615208700,2.546208740234375,-0.043788909912109375,0.004356406629085541,-0.007512718439102173
1772556914633982200,2.564982177734375,-0.025835037231445312,0.01849149540066719,-0.01854749768972397
1772556914652755700,2.583755615234375,-0.018652915954589844,0.006600096821784973,-0.016004495322704315
1772556914671529200,2.602529296875,-0.029424667358398438,0.017469558864831924,-0.006474681198596954
1772556914690303000,2.621302978515625,-0.03421211242675781,-0.006225187331438065,0.006037555634975433
1772556914709076500,2.640076416015625,-0.02822589874267578,-0.005696479231119156,0.015378743410110474
1772556914727850000,2.65885009765625,-0.028228759765625,-0.00829014927148819,0.010546810925006866
1772556914746623500,2.67762353515625,-0.024637222290039062,0.00354577973484993,-0.0016995295882225037
1772556914765397000,2.69639697265625,-0.03541278839111328,0.0034855790436267853,-0.007954686880111694
1772556914784170500,2.71517041015625,-0.019852638244628906,0.017720777541399002,-0.0129522904753685
1772556914802944300,2.7339443359375,-0.03421783447265625,0.004490893334150314,-0.01160912960767746
1772556914821717800,2.7527177734375,-0.029430389404296875,0.0031759068369865417,-0.003297075629234314
1772556914840491300,2.7714912109375,-0.024641990661621094,-0.00607706606388092,-0.004411831498146057
1772556914859264800,2.7902646484375,-0.02344512939453125,0.0010472163558006287,0.009628921747207642
1772556914878038300,2.809038330078125,-0.03900623321533203,-0.0038875043392181396,0.00403633713722229
1772556914896812000,2.82781201171875,-0.009080886840820312,0.012801561504602432,-0.002261415123939514
1772556914915585500,2.84658544921875,-0.05097770690917969,-0.0014502555131912231,-0.004684656858444214
1772556914934359000,2.865359130859375,0.0028858184814453125,0.012787699699401855,-0.008544683456420898
1772556914953132500,2.884132568359375,-0.037810325622558594,-0.002957850694656372,-0.014063335955142975
1772556914971906000,2.902906005859375,-0.033023834228515625,0.011694084852933884,-0.006254658102989197
1772556914990679600,2.921679443359375,-0.0292816162109375,-0.005993060767650604,0.004946716129779816
1772556915009453000,2.940453125,-0.04379749298095703,-0.009744197130203247,-0.0034438595175743103
1772556915028226800,2.959226806640625,-0.015069961547851562,0.008408557623624802,0.0034570470452308655
1772556915047000300,2.978000244140625,-0.02703857421875,0.0008870922029018402,-0.011023230850696564
1772556915065773800,2.99677392578125,-0.028237342834472656,0.0030702874064445496,-0.019340768456459045
1772556915084547300,3.01554736328125,-0.036617279052734375,0.012987922877073288,-0.013768032193183899
1772556915103320800,3.03432080078125,-0.031829833984375,0.005685340613126755,-0.00874212384223938
1772556915122094600,3.053094482421875,-0.02225494384765625,-0.00020650029182434082,0.005750402808189392
1772556915140868000,3.0718681640625,-0.03512287139892578,-0.019282646477222443,0.007167287170886993
1772556915159641600,3.0906416015625,-0.019860267639160156,-0.00257766991853714,-0.002758234739303589
1772556915178415000,3.1094150390625,-0.029435157775878906,0.010541237890720367,-0.00047256797552108765
1772556915197188600,3.128188720703125,-0.03661823272705078,0.01144564151763916,-0.020871497690677643
1772556915215962000,3.146962158203125,-0.029433250427246094,0.01642165333032608,-0.023143447935581207
1772556915234735600,3.165735595703125,-0.03182506561279297,0.011936932802200317,-0.015789560973644257
1772556915253509400,3.18450927734375,-0.033023834228515625,0.0035900622606277466,-0.010854937136173248
1772556915272283000,3.203282958984375,-0.029432296752929688,-0.007232878357172012,0.006031841039657593
1772556915291056400,3.222056396484375,-0.0185089111328125,-0.0036957785487174988,0.00003190338611602783
1772556915309830000,3.240829833984375,-0.02703857421875,-0.0010958760976791382,0.00485605001449585
1772556915328603400,3.259603271484375,-0.033023834228515625,-0.004832454025745392,0.00005298107862472534
1772556915347377000,3.278376953125,-0.0294342041015625,0.003310408443212509,0.0011401697993278503
1772556915366150400,3.297150390625,-0.02464771270751953,0.009115800261497498,-0.013430237770080566
1772556915384924000,3.315923828125,-0.025842666625976562,0.011458337306976318,-0.01587725430727005
1772556915403697700,3.33469775390625,-0.027039527893066406,0.004532221704721451,-0.008494533598423004
1772556915422471200,3.35347119140625,-0.02584075927734375,0.005666285753250122,-0.004950374364852905
1772556915441244700,3.37224462890625,-0.03302288055419922,0.0007634535431861877,-0.003445737063884735
1772556915460018200,3.39101806640625,-0.03661346435546875,0.005600139498710632,0.00024289637804031372
1772556915478791700,3.409791748046875,-0.02942943572998047,-0.0016377568244934082,-0.00205114483833313
1772556915497565200,3.428565185546875,-0.029430389404296875,0.005525991320610046,-0.004445798695087433
1772556915516338700,3.447338623046875,-0.03302192687988281,0.011486664414405823,-0.0034941285848617554
1772556915535112200,3.4661123046875,-0.03302192687988281,0.003148365765810013,-0.003253333270549774
1772556915553886000,3.484885986328125,-0.025841712951660156,-0.0005672425031661987,-0.0069541484117507935
1772556915572659500,3.503659423828125,-0.03302192687988281,-0.0004678554832935333,-0.0008600577712059021
1772556915591433000,3.522432861328125,-0.0354156494140625,0.0008292458951473236,-0.005647510290145874
1772556915610206500,3.54120654296875,-0.02344512939453125,0.0068497434258461,-0.0022650063037872314
1772556915628980000,3.55997998046875,-0.016262054443359375,0.009276039898395538,-0.015213638544082642
1772556915647753500,3.57875341796875,-0.03301715850830078,0.0034432746469974518,-0.006719313561916351
1772556915666527000,3.59752685546875,-0.022246360778808594,0.004453439265489578,-0.0030736178159713745
1772556915685300500,3.616300537109375,-0.022245407104492188,0.0010547712445259094,0.0017627179622650146
1772556915704074000,3.635073974609375,-0.03660774230957031,0.006047859787940979,0.004251614212989807
1772556915722847500,3.653847412109375,-0.027029991149902344,0.00115223228931427,-0.011394619941711426
1772556915741621200,3.672621337890625,-0.03421211242675781,0.003473721444606781,-0.006398208439350128
1772556915760394800,3.691394775390625,-0.03301429748535156,0.00579109787940979,-0.003985017538070679
1772556915779168300,3.710168212890625,-0.03899955749511719,0.006555542349815369,-0.01229773461818695
1772556915797941800,3.728941650390625,-0.025832176208496094,0.0034531056880950928,-0.00023940205574035645
1772556915816715300,3.74771533203125,-0.025831222534179688,0.008068129420280457,-0.006109461188316345
1772556915835488800,3.76648876953125,-0.03660392761230469,-0.0026581361889839172,-0.0037720724940299988
1772556915854262300,3.78526220703125,-0.027029037475585938,-0.0038621798157691956,-0.0012887343764305115
1772556915873035800,3.804035888671875,-0.030622482299804688,0.004555463790893555,-0.0004153251647949219
1772556915891809300,3.822809326171875,-0.03421497344970703,0.006926838308572769,-0.006565377116203308
1772556915910582800,3.841582763671875,-0.024639129638671875,0.0020125843584537506,-0.00411619246006012
1772556915929356300,3.860356201171875,-0.03421592712402344,-0.0028400719165802,-0.0030333250761032104
1772556915948130000,3.879130126953125,-0.016259193420410156,0.004454169422388077,0.001971609890460968
1772556915966903600,3.897903564453125,-0.048580169677734375,-0.007592305541038513,-0.004069983959197998
1772556915985677000,3.916677001953125,-0.018652915954589844,-0.0036899447441101074,-0.0005402937531471252
1772556916004450600,3.935450439453125,-0.02583599090576172,0.003382395952939987,-0.000601552426815033
1772556916023224000,3.95422412109375,-0.03780364990234375,0.004580438137054443,-0.011458583176136017
1772556916041997600,3.97299755859375,-0.03780174255371094,-0.0011524930596351624,-0.005273371934890747
1772556916060771000,3.99177099609375,-0.025832176208496094,0.005896706134080887,-0.0041695088148117065
1772556916079544600,4.010544677734375,-0.0258331298828125,0.00004899129271507263,-0.004020221531391144
1772556916098318000,4.029318115234375,-0.031517982482910156,-0.010667204856872559,0.004554092884063721
1772556916117091600,4.048091552734375,-0.03062152862548828,0.0024854950606822968,-0.001697055995464325
1772556916135865000,4.066864990234375,-0.027029037475585938,0.00351603701710701,-0.0028397366404533386
1772556916154638600,4.085638671875,-0.03301429748535156,0.01072714477777481,-0.005680195987224579
1772556916173412000,4.104412109375,-0.023436546325683594,0.011894997209310532,-0.01243891566991806
1772556916192185600,4.123185546875,-0.01984691619873047,0.01795666664838791,-0.009103745222091675
1772556916210959000,4.141958984375,-0.031815528869628906,0.006134293973445892,-0.006301797926425934
1772556916229732900,4.16073291015625,-0.042586326599121094,0.0003055073320865631,-0.003851570188999176
1772556916248506400,4.17950634765625,-0.018647193908691406,0.004082974046468735,0.005655713379383087
1772556916267280000,4.19827978515625,-0.02687835693359375,0.0027765855193138123,0.003026522696018219
1772556916286053400,4.217053466796875,-0.03525733947753906,-0.0007124170660972595,-0.0004204288125038147
1772556916304827000,4.235826904296875,-0.027776718139648438,0.0018723160028457642,0.0005083382129669189
1772556916323600400,4.254600341796875,-0.026880264282226562,0.011157970875501633,-0.004634112119674683
1772556916342374000,4.273373779296875,-0.031665802001953125,0.007599562406539917,-0.011486835777759552
1772556916361147400,4.2921474609375,-0.025681495666503906,0.006325088441371918,-0.010224536061286926
1772556916379921000,4.3109208984375,-0.017301559448242188,0.0003839917480945587,-0.00892743468284607
1772556916398694400,4.3296943359375,-0.031368255615234375,-0.0006378665566444397,0.006469756364822388
1772556916417468000,4.348468017578125,-0.02897357940673828,-0.004590332508087158,0.000684008002281189
1772556916436241400,4.367241455078125,-0.025531768798828125,-0.0008602812886238098,-0.005355402827262878
1772556916455015000,4.386014892578125,-0.018350601196289062,0.008691180497407913,-0.0018608346581459045
1772556916473788400,4.404788330078125,-0.03286457061767578,0.006351634860038757,-0.0067013949155807495
1772556916492562000,4.42356201171875,-0.03136730194091797,0.003827948123216629,-0.006435759365558624
1772556916511335400,4.44233544921875,-0.021790504455566406,0.004948195070028305,-0.008915059268474579
1772556916530109000,4.46110888671875,-0.022988319396972656,0.007319852709770203,-0.004276268184185028
1772556916548882400,4.47988232421875,-0.03720378875732422,-0.0019100531935691833,0.0017940625548362732
1772556916567656000,4.498656005859375,-0.034809112548828125,-0.0070539116859436035,-0.00025054067373275757
1772556916586429400,4.517429443359375,-0.02059459686279297,0.0013479143381118774,-0.005279265344142914
1772556916605203000,4.536202880859375,-0.040943145751953125,-0.0001234970986843109,-0.004958547651767731
1772556916623976700,4.554976806640625,-0.036004066467285156,0.0026108212769031525,-0.0038549453020095825
1772556916642750200,4.573750244140625,-0.022836685180664062,-0.0045765116810798645,-0.00017596781253814697
1772556916661523700,4.592523681640625,-0.033761024475097656,0.004475940018892288,-0.006362974643707275
1772556916680297200,4.611297119140625,-0.032416343688964844,0.001077074557542801,-0.005182720720767975
1772556916699070700,4.63007080078125,-0.02403545379638672,0.00231364369392395,-0.00267704576253891
1772556916717844200,4.64884423828125,-0.026429176330566406,0.0036988332867622375,-0.00044468045234680176
1772556916736617700,4.66761767578125,-0.0288238525390625,-0.0011367127299308777,-0.006594158709049225
1772556916755391200,4.68639111328125,-0.03241443634033203,0.005145803093910217,-0.01011820137500763
1772556916774164700,4.705164794921875,-0.025232315063476562,0.006227709352970123,-0.010313726961612701
1772556916792938200,4.723938232421875,-0.034809112548828125,0.006206035614013672,-0.011760033667087555
1772556916811711700,4.742711669921875,-0.031218528747558594,0.0014963522553443909,0.00035421550273895264
1772556916830485200,4.7614853515625,-0.024038314819335938,0.009678520262241364,0.0015437677502632141
1772556916849258800,4.7802587890625,-0.038402557373046875,0.003823276609182358,0.0014806762337684631
1772556916868032300,4.7990322265625,-0.040798187255859375,0.0037115775048732758,-0.0009732991456985474
1772556916886805800,4.8178056640625,-0.0336151123046875,-0.006015069782733917,-0.005404077470302582
1772556916905579300,4.836579345703125,-0.026433944702148438,0.00479382649064064,-0.007959224283695221
1772556916924352800,4.855352783203125,-0.028827667236328125,0.00835958868265152,-0.009296663105487823
1772556916943126300,4.874126220703125,-0.025236129760742188,0.001218460500240326,-0.005495816469192505
1772556916961899800,4.892899658203125,-0.022841453552246094,0.00977475568652153,-0.0008980333805084229
1772556916980673300,4.91167333984375,-0.028825759887695312,0.006160549819469452,-0.0018911287188529968
1772556916999446800,4.93044677734375,-0.021643638610839844,-0.0024333037436008453,-0.0017441436648368835
1772556917018220300,4.94922021484375,-0.030020713806152344,0.004934865981340408,-0.0005328357219696045
1772556917036993800,4.967993896484375,-0.03002166748046875,-0.002461206167936325,-0.0016395002603530884
1772556917055767300,4.986767333984375,-0.03361320495605469,0.005952153354883194,-0.0018476098775863647
1772556917074540800,5.005540771484375,-0.033614158630371094,-0.003686875104904175,-0.0015510544180870056
1772556917093314300,5.024314208984375,-0.02283954620361328,0.007325701415538788,0.000443093478679657
1772556917112087800,5.043087890625,-0.03241539001464844,0.006104953587055206,-0.003035113215446472
1772556917130861300,5.061861328125,-0.027625083923339844,-0.0035152584314346313,-0.006302781403064728
1772556917149634800,5.080634765625,-0.026426315307617188,0.002510666847229004,-0.0062422603368759155
1772556917168408300,5.099408203125,-0.03001689910888672,-0.0009412094950675964,-0.003585733473300934
1772556917187181800,5.118181884765625,-0.039592742919921875,0.003736104816198349,-0.008664548397064209
1772556917205955300,5.136955322265625,-0.02523040771484375,0.0074523985385894775,-0.0015416517853736877
1772556917224728800,5.155728759765625,-0.02043914794921875,0.002665676176548004,-0.0038781166076660156
1772556917243502300,5.17450244140625,-0.03480243682861328,0.00639062374830246,-0.008809641003608704
1772556917262275800,5.19327587890625,-0.03480243682861328,0.0016329139471054077,-0.006320685148239136
1772556917281049300,5.21204931640625,-0.01565074920654297,0.009858686476945877,-0.008802130818367004
1772556917299822800,5.23082275390625,-0.03001689910888672,0.004925969988107681,-0.007358528673648834
1772556917318596400,5.249596435546875,-0.03375816345214844,0.004837308079004288,-0.003676295280456543
1772556917337369900,5.268369873046875,-0.02777385711669922,0.0025080740451812744,-0.001438036561012268
1772556917356143400,5.287143310546875,-0.016851425170898438,0.002686150372028351,0.0012436211109161377
1772556917374916900,5.305916748046875,-0.03121662139892578,0.0037041567265987396,-0.0013633295893669128
1772556917393690400,5.3246904296875,-0.025231361389160156,0.00008916109800338745,0.0010760873556137085
1772556917412463900,5.3434638671875,-0.026427268981933594,0.0094764344394207,-0.002557195723056793
1772556917431237400,5.3622373046875,-0.021638870239257812,0.0024720169603824615,0.0024235695600509644
1772556917450011000,5.381010986328125,-0.031212806701660156,0.0025188177824020386,-0.007149003446102142
1772556917468784400,5.399784423828125,-0.014752388000488281,0.01231154054403305,0.00097675621509552
1772556917487558000,5.418557861328125,-0.03600311279296875,0.006141796708106995,-0.004934102296829224
1772556917506331400,5.437331298828125,-0.026426315307617188,0.006518468260765076,-0.002693973481655121
1772556917525105000,5.45610498046875,-0.030015945434570312,0.0031220577657222748,0.0021384283900260925
1772556917543878400,5.47487841796875,-0.01684856414794922,0.00525645911693573,-0.0025409460067749023
1772556917562651600,5.493651611328125,-0.03240966796875,0.0026844069361686707,-0.004729732871055603
1772556917581425200,5.512425048828125,-0.027622222900390625,0.005158804357051849,0.0010945796966552734
1772556917600199000,5.531198974609375,-0.031212806701660156,0.009924869984388351,-0.00031676143407821655
1772556917618972400,5.549972412109375,-0.018045425415039062,0.007643058896064758,-0.0012215599417686462
1772556917637745700,5.56874560546875,-0.03719615936279297,0.011209763586521149,-0.0074453651905059814
1772556917656519200,5.587519287109375,-0.027620315551757812,-0.0006701052188873291,-0.002363041043281555
1772556917675292700,5.606292724609375,-0.026421546936035156,0.0030050501227378845,-0.007091686129570007
1772556917694066200,5.625066162109375,-0.038689613342285156,0.006617039442062378,0.001239486038684845
1772556917712839700,5.643839599609375,-0.02582263946533203,0.004192318767309189,0.0012649744749069214
1772556917731613200,5.66261328125,-0.028220176696777344,0.0017146691679954529,-0.0024990439414978027
1772556917750386700,5.68138671875,-0.033008575439453125,-0.0004973486065864563,0.0010258331894874573
1772556917769160200,5.70016015625,-0.036599159240722656,0.008889194577932358,-0.0015606805682182312
1772556917787933700,5.71893359375,-0.028219223022460938,-0.0018477216362953186,-0.004853114485740662
1772556917806707200,5.737707275390625,-0.024627685546875,0.004310201853513718,-0.0025186315178871155
1772556917825480700,5.756480712890625,-0.03300666809082031,-0.0017331689596176147,-0.00007668882608413696
1772556917844254200,5.775254150390625,-0.024629592895507812,-0.0017159879207611084,-0.0013369694352149963
1772556917863027700,5.79402783203125,-0.02103710174560547,0.008924569934606552,-0.0012878477573394775
1772556917881801200,5.81280126953125,-0.024478912353515625,-0.0019252598285675049,-0.007175564765930176
1772556917900574700,5.83157470703125,-0.02298450469970703,0.0016757100820541382,-0.0026903748512268066
1772556917919348200,5.85034814453125,-0.027625083923339844,0.0005468353629112244,0.0006288439035415649
1772556917938121700,5.869121826171875,-0.026427268981933594,0.0018287822604179382,0.00046969950199127197
1772556917956895200,5.887895263671875,-0.033608436584472656,0.0018753930926322937,-0.0041198208928108215
1772556917975668700,5.906668701171875,-0.025226593017578125,-0.003714829683303833,-0.0002820640802383423
1772556917994442200,5.925442138671875,-0.0300140380859375,0.007078047841787338,-0.0005892068147659302
1772556918013215700,5.9442158203125,-0.03480052947998047,-0.00524313747882843,-0.012040533125400543
1772556918031989000,5.962989013671875,-0.027618408203125,0.004412714391946793,-0.007638975977897644
1772556918050762500,5.981762451171875,-0.022829055786132812,0.008562091737985611,0.0008425861597061157
1772556918069536000,6.000535888671875,-0.031208038330078125,0.005945898592472076,-0.004059016704559326
1772556918088309500,6.0193095703125,-0.03240680694580078,0.0047719888389110565,0.0007193088531494141
1772556918107083000,6.0380830078125,-0.02896404266357422,-0.0026920735836029053,-0.007149629294872284
1772556918125856500,6.0568564453125,-0.026871681213378906,0.007837057113647461,-0.0014328062534332275
1772556918144630000,6.075630126953125,-0.037497520446777344,-0.0006214231252670288,0.0020335689187049866
1772556918163403500,6.094403564453125,-0.03270912170410156,0.009288396686315536,0.0007699355483055115
1772556918182177000,6.113177001953125,-0.020890235900878906,0.006800852715969086,0.0007968172430992126
1772556918200950500,6.131950439453125,-0.027024269104003906,0.007865332067012787,-0.008864670991897583
1772556918219724000,6.15072412109375,-0.03285980224609375,0.0042986683547496796,-0.007624782621860504
1772556918238497500,6.16949755859375,-0.021935462951660156,0.003127068281173706,-0.002932719886302948
1772556918257271000,6.18827099609375,-0.030467987060546875,0.006941743195056915,-0.001964747905731201
1772556918276044500,6.20704443359375,-0.035404205322265625,0.008176028728485107,-0.0031091496348381042
1772556918294818000,6.225818115234375,-0.02657604217529297,0.004553627222776413,-0.0053530409932136536
1772556918313591600,6.244591552734375,-0.026427268981933594,0.0022249966859817505,-0.0021222904324531555
1772556918332365000,6.263364990234375,-0.02882099151611328,0.0032981187105178833,-0.00322829931974411
1772556918351138600,6.282138671875,-0.025229454040527344,0.009447302669286728,-0.009447261691093445
1772556918369911800,6.300911865234375,-0.03121185302734375,0.005726959556341171,-0.012759648263454437
1772556918388685300,6.319685302734375,-0.03600025177001953,0.005896713584661484,-0.007851772010326385
1772556918407458800,6.338458740234375,-0.031210899353027344,0.0009890757501125336,-0.007732748985290527
1772556918426232300,6.357232421875,-0.024028778076171875,0.013265546411275864,-0.0008570775389671326
1772556918445005800,6.376005859375,-0.028817176818847656,0.006010759621858597,-0.006651498377323151
1772556918463779300,6.394779296875,-0.03600025177001953,0.003435663878917694,-0.01387089490890503
1772556918482552800,6.413552734375,-0.026422500610351562,0.004899304360151291,0.0005394965410232544
1772556918501326300,6.432326416015625,-0.021636009216308594,0.0020651444792747498,-0.008934661746025085
1772556918520099800,6.451099853515625,-0.030017852783203125,0.0007305927574634552,-0.0016646310687065125
1772556918538873300,6.469873291015625,-0.032410621643066406,-0.004055149853229523,-0.006448246538639069
1772556918557646800,6.488646728515625,-0.015651702880859375,0.010676909238100052,-0.004205025732517242
1772556918576420400,6.50742041015625,-0.03839683532714844,0.010482441633939743,-0.005455873906612396
1772556918595193900,6.52619384765625,-0.02762317657470703,0.007935360074043274,-0.004295676946640015
1772556918613967400,6.54496728515625,-0.02642536163330078,0.005711600184440613,-0.0029517710208892822
1772556918632740600,6.56374072265625,-0.019243240356445312,0.004624214023351669,0.0005728304386138916
1772556918651514000,6.58251416015625,-0.036002159118652344,0.005543138831853867,-0.0018260329961776733
1772556918670287600,6.60128759765625,-0.03480720520019531,0.0006732828915119171,-0.0017376542091369629
1772556918689061000,6.62006103515625,-0.02523040771484375,-0.003980919718742371,-0.0017431676387786865
1772556918707834600,6.638834716796875,-0.02882099151611328,0.006904147565364838,-0.003484070301055908
1772556918726608100,6.657608154296875,-0.026427268981933594,0.0019376873970031738,-0.004381313920021057
1772556918745381600,6.676381591796875,-0.025229454040527344,0.005343686789274216,-0.007908575236797333
1772556918764155100,6.695155029296875,-0.03360939025878906,0.003012247383594513,-0.006948620080947876
1772556918782928600,6.7139287109375,-0.02882099151611328,0.00199233740568161,-0.001958802342414856
1772556918801702100,6.7327021484375,-0.034804344177246094,-0.0004608854651451111,-0.003942318260669708
1772556918820475600,6.7514755859375,-0.020438194274902344,0.004855163395404816,0.0006857141852378845
1772556918839249200,6.770249267578125,-0.033606529235839844,0.010440744459629059,-0.0019004791975021362
1772556918858022700,6.789022705078125,-0.038394927978515625,0.00905216857790947,-0.004350684583187103
1772556918876796200,6.807796142578125,-0.030015945434570312,0.0008528381586074829,-0.003902353346347809
1772556918895569400,6.8265693359375,-0.020438194274902344,0.003273371607065201,-0.002809472382068634
1772556918914343000,6.845343017578125,-0.03480243682861328,-0.006519608199596405,-0.008729048073291779
1772556918933116400,6.864116455078125,-0.0300140380859375,0.001980617642402649,-0.005378067493438721
1772556918951890000,6.882889892578125,-0.03240966796875,0.0032414384186267853,-0.005133718252182007
1772556918970663400,6.901663330078125,-0.03600025177001953,0.006963513791561127,0.0005423575639724731
1772556918989437000,6.92043701171875,-0.031210899353027344,0.003036007285118103,-0.008813165128231049
1772556919008210400,6.93921044921875,-0.02402973175048828,0.00784778967499733,-0.00285986065864563
1772556919026984000,6.95798388671875,-0.034804344177246094,0.0030195675790309906,-0.0003724321722984314
1772556919045757400,6.97675732421875,-0.03480243682861328,0.005276694893836975,-0.005300834774971008
1772556919064531000,6.995531005859375,-0.030015945434570312,-0.0007403120398521423,-0.0026594996452331543
1772556919083304400,7.014304443359375,-0.021636962890625,0.004902098327875137,-0.012361355125904083
1772556919102077700,7.03307763671875,-0.039592742919921875,0.0026195645332336426,-0.0002422034740447998
1772556919120851200,7.051851318359375,-0.033606529235839844,-0.0022916197776794434,-0.0096493661403656
1772556919139624700,7.070624755859375,-0.027622222900390625,0.002457566559314728,-0.008379556238651276
1772556919158398200,7.089398193359375,-0.03600120544433594,0.010817084461450577,-0.008698225021362305
1772556919177171700,7.108171630859375,-0.034801483154296875,0.007141191512346268,-0.003548651933670044
1772556919195945200,7.1269453125,-0.03360462188720703,-0.0009145438671112061,-0.0008913949131965637
1772556919214718700,7.14571875,-0.024028778076171875,0.00004375353455543518,-0.008058533072471619
1772556919233492200,7.1644921875,-0.030013084411621094,0.0035934746265411377,-0.005597367882728577
1772556919252265700,7.183265625,-0.03001117706298828,-0.0025120116770267487,-0.004075340926647186
1772556919271039200,7.202039306640625,-0.01923847198486328,0.0035807527601718903,-0.004216887056827545
1772556919289812700,7.220812744140625,-0.03838920593261719,0.008430462330579758,-0.005440674722194672
1772556919308586200,7.239586181640625,-0.03120708465576172,0.007483005523681641,-0.004534192383289337
1772556919327359500,7.258359375,-0.02642059326171875,0.007322818040847778,0.00013913214206695557
1772556919346133000,7.277133056640625,-0.024026870727539062,0.010857589542865753,-0.004640623927116394
1772556919364906500,7.295906494140625,-0.03360462188720703,0.002197887748479843,-0.004744604229927063
1772556919383680000,7.314679931640625,-0.022828102111816406,0.006173968315124512,-0.00806531310081482
1772556919402453500,7.33345361328125,-0.019237518310546875,0.004614159464836121,-0.005753159523010254
1772556919421227000,7.35222705078125,-0.04317760467529297,0.0011932328343391418,-0.0021022483706474304
1772556919440000500,7.37100048828125,-0.02641773223876953,0.002257607877254486,-0.007809333503246307
1772556919458774000,7.38977392578125,-0.028812408447265625,0.0037126876413822174,0.00041820108890533447
1772556919477547500,7.408547607421875,-0.03000926971435547,0.007273510098457336,-0.00441771000623703
1772556919496320800,7.42732080078125,-0.033598899841308594,0.0036412999033927917,0.000779375433921814
1772556919515094300,7.44609423828125,-0.024023056030273438,0.0045522116124629974,-0.0015194565057754517
1772556919533867800,7.46486767578125,-0.02402496337890625,0.004620853811502457,-0.004074573516845703
1772556919552641300,7.483641357421875,-0.037192344665527344,0.005866039544343948,0.0006174370646476746
1772556919571414800,7.502414794921875,-0.031205177307128906,0.00718306377530098,-0.0015125423669815063
1772556919590188300,7.521188232421875,-0.018036842346191406,0.008328713476657867,-0.002536885440349579
1772556919608961800,7.5399619140625,-0.027611732482910156,0.0034064501523971558,-0.008448950946331024
1772556919627735300,7.5587353515625,-0.031202316284179688,0.004728734493255615,0.00007858872413635254
1772556919646508800,7.5775087890625,-0.027612686157226562,0.0011012963950634003,-0.0037113651633262634
1772556919665282300,7.5962822265625,-0.02042675018310547,0.004967216402292252,-0.004638060927391052
1772556919684055600,7.6150556640625,-0.03359508514404297,0.00488622859120369,-0.0014566928148269653
1772556919702829000,7.6338291015625,-0.028806686401367188,-0.0006263777613639832,0.008007965981960297
1772556919721602600,7.6526025390625,-0.02402019500732422,0.004006650298833847,0.002017296850681305
1772556919740376000,7.6713759765625,-0.02402019500732422,0.006204236298799515,-0.008943922817707062
1772556919759149600,7.690149658203125,-0.03718757629394531,0.007315549999475479,-0.005398668348789215
1772556919777923000,7.708923095703125,-0.022823333740234375,0.0014798864722251892,-0.003894902765750885
1772556919796696600,7.727696533203125,-0.027612686157226562,0.0024324320256710052,-0.004242397844791412
1772556919815470000,7.746469970703125,-0.030007362365722656,0.005043730139732361,-0.00163973867893219
1772556919834243600,7.76524365234375,-0.031202316284179688,0.0014729127287864685,0.0008633583784103394
1772556919853017000,7.78401708984375,-0.03239917755126953,0.0025360509753227234,-0.002871207892894745
1772556919871790300,7.802790283203125,-0.034793853759765625,0.0024979114532470703,-0.005162067711353302
1772556919890563800,7.821563720703125,-0.0264129638671875,0.002720724791288376,0.0009323060512542725
1772556919909337300,7.84033740234375,-0.02880859375,0.0010207034647464752,0.0010218098759651184
1772556919928110800,7.85911083984375,-0.030008316040039062,-0.00047012418508529663,-0.004917040467262268
1772556919946884400,7.87788427734375,-0.037189483642578125,-0.0004095807671546936,-0.0022935867309570312
1772556919965657900,7.896657958984375,-0.02402019500732422,0.00916881114244461,-0.004920840263366699
1772556919984431400,7.915431396484375,-0.0312042236328125,0.008947562426328659,-0.0037731975317001343
1772556920003204900,7.934204833984375,-0.028809547424316406,0.005610503256320953,0.0034560933709144592
1772556920021978000,7.95297802734375,-0.03359699249267578,0.0063663870096206665,-0.005994908511638641
1772556920040751600,7.971751708984375,-0.030007362365722656,0.005162861198186874,0.0011828318238258362
1772556920059525000,7.990525146484375,-0.030007362365722656,0.0006021633744239807,0.0012721791863441467
1772556920078298600,8.009298583984375,-0.027612686157226562,0.005101505666971207,-0.0022582560777664185
1772556920097072000,8.028072021484375,-0.016839981079101562,0.003955557942390442,-0.008375942707061768
1772556920115845600,8.046845703125,-0.027612686157226562,0.0015247426927089691,-0.0033755823969841003
1772556920134619100,8.065619140625,-0.03240203857421875,0.0026263967156410217,-0.003574647009372711
1772556920153392600,8.084392578125,-0.02521991729736328,0.0017481818795204163,0.000051878392696380615
1772556920172166100,8.103166259765626,-0.027616500854492188,0.0026994124054908752,-0.00015456229448318481
1772556920190939400,8.121939453125,-0.03240394592285156,0.009733203798532486,-0.004932813346385956
1772556920209713000,8.140712890625,-0.03000926971435547,-0.0009218193590641022,0.00011604279279708862
1772556920228486400,8.159486328125,-0.026416778564453125,0.0011747628450393677,-0.0033567026257514954
1772556920247260000,8.178260009765625,-0.02761363983154297,0.002426411956548691,-0.001204162836074829
1772556920266033400,8.197033447265625,-0.03240394592285156,0.0008936934173107147,-0.004654727876186371
1772556920284807000,8.215806884765625,-0.022829055786132812,0.0034507811069488525,-0.009683512151241302
1772556920303580400,8.234580322265625,-0.030013084411621094,0.004697326570749283,0.0021683722734451294
1772556920322354000,8.25335400390625,-0.03360557556152344,0.004596874117851257,-0.002521499991416931
1772556920341127200,8.272127197265625,-0.039589881896972656,-0.003956284373998642,-0.0014717057347297668
1772556920359900700,8.290900634765626,-0.028818130493164062,-0.005117602646350861,-0.0013770833611488342
1772556920378674200,8.309674072265626,-0.031209945678710938,0.008260026574134827,-0.00021785497665405273
1772556920397447700,8.32844775390625,-0.035999298095703125,0.0018256790935993195,-0.005145050585269928
1772556920416221200,8.34722119140625,-0.02522563934326172,-0.002840351313352585,-0.0035852938890457153
1772556920434994700,8.36599462890625,-0.026422500610351562,0.005585759878158569,-0.0038205310702323914
1772556920453768200,8.384768310546875,-0.0407867431640625,0.00331912562251091,-0.0012744888663291931
1772556920472541400,8.40354150390625,-0.035999298095703125,0.0036320090293884277,0.009215421974658966
1772556920491315000,8.42231494140625,-0.01565074920654297,0.0020413286983966827,-0.005045786499977112
1772556920510088400,8.44108837890625,-0.03480339050292969,0.0008277110755443573,0.0023172348737716675
1772556920528862000,8.459862060546875,-0.03719806671142578,-0.003928977996110916,-0.00018959492444992065
1772556920547635500,8.478635498046875,-0.020438194274902344,0.009091533720493317,-0.006199561059474945
1772556920566409000,8.497408935546876,-0.030013084411621094,0.002020362764596939,-0.0021363645792007446
1772556920585182500,8.516182373046876,-0.03121185302734375,0.0017771683633327484,-0.005977034568786621
1772556920603956000,8.5349560546875,-0.0192413330078125,-0.0016956105828285217,-0.0011865124106407166
1772556920622729200,8.553729248046874,-0.024031639099121094,0.005179867148399353,-0.0025851652026176453
1772556920641502700,8.572502685546874,-0.028820037841796875,-0.004121638834476471,-0.0010872334241867065
1772556920660276200,8.591276123046875,-0.03001689910888672,-0.0031009167432785034,0.00010873377323150635
1772556920679049700,8.6100498046875,-0.021638870239257812,0.002695661038160324,-0.005864717066287994
1772556920697823200,8.6288232421875,-0.02881908416748047,0.00409240648150444,-0.00499337911605835
1772556920716596700,8.6475966796875,-0.031212806701660156,-0.004348427057266235,-0.008565165102481842
1772556920735370200,8.666370361328125,-0.03240776062011719,0.005609720945358276,-0.0025698766112327576
1772556920754143700,8.685143798828125,-0.030013084411621094,0.010417990386486053,-0.0012674927711486816
1772556920772917000,8.7039169921875,-0.03719615936279297,-0.0018217600882053375,-0.0023759156465530396
1772556920791690500,8.7226904296875,-0.030014991760253906,0.0014362335205078125,-0.009695746004581451
1772556920810464000,8.741464111328124,-0.027620315551757812,-0.001976795494556427,-0.0011544674634933472
1772556920829237500,8.760237548828124,-0.03480243682861328,0.004865579307079315,-0.003551304340362549
1772556920848011000,8.779010986328124,-0.0300140380859375,0.006038259714841843,-0.0069686248898506165
1772556920866784500,8.797784423828125,-0.02283000946044922,-0.005873892456293106,-0.000693097710609436
1772556920885558000,8.81655810546875,-0.032408714294433594,0.0035332143306732178,-0.005889676511287689
1772556920904331500,8.83533154296875,-0.035552024841308594,0.003718443214893341,-0.008535943925380707
1772556920923104800,8.854104736328125,-0.02956676483154297,0.004986908286809921,-0.003750123083591461
1772556920941878300,8.872878173828125,-0.017447471618652344,-0.0009156055748462677,0.0047576650977134705
1772556920960651800,8.89165185546875,-0.03300952911376953,0.0036473311483860016,-0.004818148910999298
1772556920979425300,8.91042529296875,-0.029415130615234375,0.002360731363296509,-0.008288882672786713
1772556920998198800,8.92919873046875,-0.02702045440673828,-0.004410400986671448,-0.0046414583921432495
1772556921016972300,8.94797216796875,-0.030759811401367188,0.005199164152145386,0.00258028507232666
1772556921035745800,8.966745849609374,-0.03674507141113281,0.006426569074392319,-0.002306506037712097
1772556921054519000,8.98551904296875,-0.02477264404296875,0.0053179822862148285,-0.0008558779954910278
1772556921073292500,9.00429248046875,-0.01878643035888672,0.006600387394428253,0.005162790417671204
1772556921092066000,9.023066162109375,-0.036594390869140625,-0.0021043159067630768,-0.00208079069852829
1772556921110839600,9.041839599609375,-0.022230148315429688,0.001733880490064621,-0.0009487271308898926
1772556921129613000,9.060613037109375,-0.02462291717529297,0.0029686279594898224,-0.0032332614064216614
1772556921148386600,9.079386474609375,-0.035396575927734375,0.0040322765707969666,0.00040287524461746216
1772556921167160000,9.09816015625,-0.029410362243652344,-0.004404380917549133,0.0008583888411521912
1772556921185933300,9.116933349609376,-0.028214454650878906,0.00037261098623275757,-0.0006475895643234253
1772556921204706800,9.135706787109376,-0.029409408569335938,-0.002028152346611023,-0.0005442500114440918
1772556921223480300,9.154480224609374,-0.030607223510742188,0.007370863109827042,-0.004192844033241272
1772556921242253800,9.17325390625,-0.02941131591796875,0.0002721622586250305,0.0005260631442070007
1772556921261027300,9.19202734375,-0.028214454650878906,-0.004516821354627609,-0.002919010818004608
1772556921279800800,9.21080078125,-0.036594390869140625,0.003936372697353363,-0.0006277263164520264
1772556921298574300,9.22957421875,-0.023876190185546875,0.0013778135180473328,-0.004126250743865967
1772556921317347600,9.24834765625,-0.025221824645996094,-0.004608020186424255,0.0021055713295936584
1772556921336121000,9.26712109375,-0.02761363983154297,0.00001901388168334961,-0.0013611912727355957
1772556921354894600,9.28589453125,-0.02880859375,0.008424215018749237,0.0011315420269966125
1772556921373668000,9.304668212890626,-0.030007362365722656,-0.0036609098315238953,-0.0011770948767662048
1772556921392441600,9.323441650390626,-0.02641582489013672,-0.0033454857766628265,0.0009979084134101868
1772556921411215000,9.342215087890626,-0.032401084899902344,0.003760147839784622,-0.0003582611680030823
1772556921429988400,9.36098828125,-0.03599071502685547,-0.002362508326768875,-0.0036880671977996826
1772556921448761900,9.379761962890624,-0.02880573272705078,-0.0032645463943481445,0.0010503903031349182
1772556921467535400,9.398535400390625,-0.02880859375,-0.0035650022327899933,-0.0023598521947860718
1772556921486308900,9.417308837890625,-0.037186622619628906,-0.002112705260515213,0.000024303793907165527
1772556921505082400,9.436082275390625,-0.02402019500732422,-0.0008127652108669281,0.0009463652968406677
1772556921523856000,9.45485595703125,-0.02042865753173828,0.008824851363897324,-0.0014922916889190674
1772556921542629000,9.473629150390625,-0.03239917755126953,-0.0032999441027641296,-0.0009944140911102295
1772556921561402600,9.492402587890625,-0.030004501342773438,-0.0020525865256786346,-0.00488387793302536
1772556921580176100,9.511176025390625,-0.027608871459960938,0.0003303736448287964,-0.002233467996120453
1772556921598949600,9.52994970703125,-0.032398223876953125,0.001194186508655548,-0.008358240127563477
1772556921617723100,9.54872314453125,-0.035988807678222656,-0.000014223158359527588,-0.005847826600074768
1772556921636496600,9.56749658203125,-0.026412010192871094,0.0000680871307849884,-0.002112776041030884
1772556921655270100,9.586270263671874,-0.024019241333007812,0.0009890757501125336,-0.0036670714616775513
1772556921674043400,9.60504345703125,-0.034790992736816406,-0.0003108270466327667,-0.009434647858142853
1772556921692817000,9.62381689453125,-0.02850627899169922,-0.003493852913379669,-0.003338947892189026
1772556921711590400,9.64259033203125,-0.034191131591796875,0.005011606961488724,0.00014816969633102417
1772556921730364000,9.661364013671875,-0.029402732849121094,0.0013685449957847595,-0.003508232533931732
1772556921749137400,9.680137451171875,-0.03179454803466797,0.003650158643722534,-0.005730785429477692
1772556921767911000,9.698910888671875,-0.02341747283935547,0.006261751055717468,0.00003725290298461914
1772556921786684200,9.71768408203125,-0.022220611572265625,-0.0008743517100811005,-0.004600487649440765
1772556921805457700,9.736457763671876,-0.032993316650390625,-0.0009767748415470123,-0.0034055188298225403
1772556921824231200,9.755231201171876,-0.025811195373535156,0.0003963373601436615,0.0013678297400474548
1772556921843004700,9.774004638671874,-0.03434276580810547,0.013314832001924515,0.001092374324798584
1772556921861778200,9.792778076171874,-0.03778362274169922,0.0036625266075134277,0.001340717077255249
1772556921880551700,9.8115517578125,-0.040177345275878906,-0.00852293148636818,-0.0007436946034431458
1772556921899325000,9.830324951171875,0.00007343292236328125,0.007485982030630112,-0.002797350287437439
1772556921918098400,9.849098388671875,-0.038382530212402344,0.002194587141275406,-0.0064766258001327515
1772556921936872000,9.867871826171875,-0.035988807678222656,-0.003567766398191452,-0.0015086084604263306
1772556921955645400,9.8866455078125,-0.022820472717285156,0.0026066042482852936,-0.002710312604904175
1772556921974419000,9.9054189453125,-0.02282238006591797,0.009102635085582733,0.006315141916275024
1772556921993192400,9.9241923828125,-0.034790992736816406,-0.0018071457743644714,-0.005503274500370026
