time,seconds_elapsed,z,y,x
1772556912225264400,0.156264404296875,0.00015271181473508477,0.00015271181473508477,-0.00030542362947016954
1772556912253425000,0.1844248046875,0.00015271181473508477,-0.0010689827613532543,0.00030542362947016954
1772556912272198400,0.203198486328125,-0.0004581354442052543,0.001374406274408102,-0.0009162708884105086
1772556912290972200,0.22197216796875,0.0007635590736754239,0.00015271181473508477,-0.0009162708884105086
1772556912309745700,0.24074560546875,-0.0004581354442052543,-0.0010689827613532543,-0.00030542362947016954
1772556912328519400,0.25951953125,0.00015271181473508477,-0.0004581354442052543,0.00030542362947016954
1772556912347293000,0.27829296875,-0.0004581354442052543,-0.0010689827613532543,-0.00030542362947016954
1772556912366066700,0.297066650390625,-0.0004581354442052543,-0.0010689827613532543,0.0015271181473508477
1772556912384840200,0.315840087890625,-0.0004581354442052543,0.00015271181473508477,-0.00030542362947016954
1772556912403613700,0.33461376953125,-0.0004581354442052543,0.0007635590736754239,0.00030542362947016954
1772556912422387500,0.353387451171875,0.00015271181473508477,0.00015271181473508477,0.0009162708884105086
1772556912441161000,0.372160888671875,0.00015271181473508477,-0.0004581354442052543,0.00030542362947016954
1772556912459934700,0.390934814453125,0.00015271181473508477,0.0007635590736754239,0.00030542362947016954
1772556912478708200,0.409708251953125,-0.0004581354442052543,0.00015271181473508477,0.00030542362947016954
1772556912497481700,0.428481689453125,-0.0004581354442052543,-0.0004581354442052543,0.00030542362947016954
1772556912516255500,0.44725537109375,-0.0004581354442052543,0.0007635590736754239,0.0009162708884105086
1772556912535029000,0.466029052734375,-0.0004581354442052543,-0.0004581354442052543,0.0009162708884105086
1772556912553802800,0.484802734375,0.00015271181473508477,-0.0004581354442052543,0.0009162708884105086
1772556912572576300,0.503576171875,0.0007635590736754239,0.00015271181473508477,0.0009162708884105086
1772556912591350000,0.52235009765625,-0.00030542362947016954,-0.0010689827613532543,0.0006108472589403391
1772556912610123500,0.54112353515625,0.0009162708884105086,-0.0004581354442052543,0
1772556912628897000,0.55989697265625,0.00030542362947016954,0.00015271181473508477,-0.0006108472589403391
1772556912647670800,0.5786708984375,-0.00030542362947016954,-0.0004581354442052543,-0.0006108472589403391
1772556912666444300,0.5974443359375,-0.00030542362947016954,0.00015271181473508477,0
1772556912685217800,0.6162177734375,0.00030542362947016954,-0.0004581354442052543,0.0006108472589403391
1772556912703991600,0.634991455078125,0.0004581354442052543,-0.0004581354442052543,0
1772556912722765000,0.65376513671875,-0.001374406274408102,0.0007635590736754239,-0.0012216945178806782
1772556912741538800,0.672538818359375,0.0004581354442052543,-0.0004581354442052543,0
1772556912760312300,0.691312255859375,0.00030542362947016954,0.00015271181473508477,-0.0006108472589403391
1772556912779085800,0.7100859375,0.00030542362947016954,0.00015271181473508477,0
1772556912797859600,0.728859619140625,0.00030542362947016954,0.0007635590736754239,0
1772556912816633000,0.747633056640625,-0.00015271181473508477,-0.0010689827613532543,0.0006108472589403391
1772556912835406600,0.766406494140625,-0.0009162708884105086,-0.0004581354442052543,-0.0006108472589403391
1772556912854180400,0.785180419921875,-0.00015271181473508477,0.001374406274408102,0.0006108472589403391
1772556912872953900,0.803953857421875,-0.00015271181473508477,0.00015271181473508477,0
1772556912891727600,0.8227275390625,0.00030542362947016954,-0.0010689827613532543,0
1772556912910501000,0.841501220703125,0.0009162708884105086,0.00015271181473508477,-0.0012216945178806782
1772556912929274600,0.860274658203125,0.0009162708884105086,0.00015271181473508477,0
1772556912948048400,0.87904833984375,-0.00030542362947016954,0.00015271181473508477,0.0006108472589403391
1772556912966822000,0.89782177734375,0.0009162708884105086,0.00015271181473508477,0.0006108472589403391
1772556912985595400,0.916595458984375,0.00030542362947016954,-0.0004581354442052543,0
1772556913004369200,0.935369140625,0.00030542362947016954,-0.0010689827613532543,-0.0006108472589403391
1772556913023142700,0.954142578125,-0.00030542362947016954,0.00015271181473508477,-0.0006108472589403391
1772556913041916200,0.972916259765625,-0.00030542362947016954,-0.0010689827613532543,-0.0012216945178806782
1772556913060690000,0.99168994140625,-0.00030542362947016954,0.008093725889921188,0.0024433890357613564
1772556913079463400,1.01046337890625,0.0009162708884105086,-0.0012216945178806782,-0.007330167107284069
1772556913098237000,1.02923681640625,-0.00030542362947016954,0.001985253533348441,-0.004275931045413017
1772556913117010700,1.0480107421875,-0.00015271181473508477,-0.003359660040587187,0.004428642801940441
1772556913135784200,1.0667841796875,0.0009162708884105086,-0.0016798300202935934,-0.0012216945178806782
1772556913154557700,1.0855576171875,0.00030542362947016954,0.00015271181473508477,-0.0030542362947016954
1772556913173331500,1.10433154296875,-0.00030542362947016954,0.001374406274408102,0.0012216945178806782
1772556913192105000,1.12310498046875,-0.00030542362947016954,0.001985253533348441,-0.0006108472589403391
1772556913210878500,1.14187841796875,-0.0009162708884105086,0.00015271181473508477,-0.0006108472589403391
1772556913229652200,1.16065234375,0.00030542362947016954,0.00015271181473508477,0.0006108472589403391
1772556913248425700,1.17942578125,0.00030542362947016954,-0.0004581354442052543,0
1772556913267199200,1.19819921875,0.0009162708884105086,0.00015271181473508477,-0.0006108472589403391
1772556913285973000,1.216972900390625,0.0009162708884105086,-0.0004581354442052543,-0.0012216945178806782
1772556913304746500,1.23574658203125,0.00030542362947016954,0.00015271181473508477,0
1772556913323520000,1.25452001953125,0.00030542362947016954,-0.0004581354442052543,0
1772556913342293800,1.273293701171875,-0.0009162708884105086,0.0007635590736754239,-0.0006108472589403391
1772556913361067300,1.2920673828125,-0.00030542362947016954,0.00015271181473508477,-0.0030542362947016954
1772556913379840800,1.3108408203125,-0.00030542362947016954,-0.0004581354442052543,-0.0012216945178806782
1772556913398614500,1.329614501953125,0.00030542362947016954,-0.0004581354442052543,0.0006108472589403391
1772556913417388000,1.348387939453125,-0.0009162708884105086,-0.0010689827613532543,0.0006108472589403391
1772556913436161500,1.36716162109375,-0.00030542362947016954,-0.0004581354442052543,0.0006108472589403391
1772556913454935000,1.38593505859375,0.00030542362947016954,0.00015271181473508477,0.0006108472589403391
1772556913473708800,1.404708740234375,-0.00030542362947016954,0.0007635590736754239,0
1772556913492482300,1.423482421875,0.00030542362947016954,-0.0010689827613532543,-0.0006108472589403391
1772556913511255800,1.442255859375,0.0004581354442052543,-0.0004581354442052543,0.0024433890357613564
1772556913530029600,1.461029541015625,-0.00015271181473508477,-0.0010689827613532543,-0.0006108472589403391
1772556913548803000,1.479802978515625,0.0010689827613532543,0.00015271181473508477,0
1772556913567576600,1.49857666015625,-0.0007635590736754239,0.0007635590736754239,0.0006108472589403391
1772556913586350000,1.51735009765625,-0.0007635590736754239,-0.0004581354442052543,0.0006108472589403391
1772556913605123800,1.536123779296875,-0.0007635590736754239,0.00015271181473508477,0.0006108472589403391
1772556913623897300,1.5548974609375,-0.00015271181473508477,-0.0004581354442052543,0
1772556913642670800,1.5736708984375,0.0004581354442052543,-0.0004581354442052543,0
1772556913661444600,1.592444580078125,-0.00015271181473508477,-0.0010689827613532543,-0.0018325417768210173
1772556913680218000,1.611218017578125,-0.00015271181473508477,0.00015271181473508477,-0.0006108472589403391
1772556913698991600,1.62999169921875,-0.00015271181473508477,-0.0004581354442052543,0.0006108472589403391
1772556913717765400,1.648765380859375,-0.00015271181473508477,0.00015271181473508477,0.0006108472589403391
1772556913736539000,1.667538818359375,0.0004581354442052543,-0.0010689827613532543,0
1772556913755312400,1.6863125,-0.00015271181473508477,0.001374406274408102,-0.0006108472589403391
1772556913774086000,1.7050859375,-0.00015271181473508477,0.0007635590736754239,-0.0006108472589403391
1772556913792859600,1.723859619140625,-0.00015271181473508477,0.00015271181473508477,0
1772556913811633200,1.742633056640625,0.0010689827613532543,0.00015271181473508477,0.0012216945178806782
1772556913830406700,1.76140673828125,-0.00015271181473508477,-0.0004581354442052543,0
1772556913849180200,1.78018017578125,0.0004581354442052543,-0.0004581354442052543,-0.0006108472589403391
1772556913867954000,1.798953857421875,0.0010689827613532543,0.00015271181473508477,-0.0006108472589403391
1772556913886727400,1.8177275390625,-0.00015271181473508477,-0.0004581354442052543,-0.0006108472589403391
1772556913905501000,1.8365009765625,-0.00015271181473508477,-0.0004581354442052543,0
1772556913924274400,1.8552744140625,-0.00015271181473508477,-0.0010689827613532543,0
1772556913943048200,1.874048095703125,0.00030542362947016954,0.001374406274408102,0
1772556913961821700,1.89282177734375,0.0010689827613532543,-0.0010689827613532543,-0.0006108472589403391
1772556913980595200,1.91159521484375,0.0004581354442052543,0.00015271181473508477,-0.0006108472589403391
1772556913999368700,1.93036865234375,-0.00015271181473508477,0.00015271181473508477,0
1772556914018142500,1.949142578125,-0.00015271181473508477,-0.0016798300202935934,0
1772556914036916000,1.967916015625,0.0004581354442052543,-0.0004581354442052543,-0.0012216945178806782
1772556914055689500,1.986689453125,0.0004581354442052543,-0.0016798300202935934,-0.0006108472589403391
1772556914074463000,2.005462890625,-0.00015271181473508477,0.0007635590736754239,0
1772556914093236700,2.02423681640625,0.0004581354442052543,-0.0010689827613532543,-0.0006108472589403391
1772556914112010200,2.04301025390625,0.0004581354442052543,-0.0010689827613532543,-0.0006108472589403391
1772556914130783700,2.06178369140625,0.0010689827613532543,-0.0004581354442052543,0.0012216945178806782
1772556914149557200,2.08055712890625,0.0004581354442052543,-0.0004581354442052543,0
1772556914168331000,2.0993310546875,0.0010689827613532543,0.00015271181473508477,0
1772556914187104500,2.1181044921875,-0.00015271181473508477,0.0007635590736754239,0
1772556914205878000,2.1368779296875,-0.00015271181473508477,0.00015271181473508477,-0.0012216945178806782
1772556914224651500,2.155651611328125,-0.00015271181473508477,0.0007635590736754239,0.0006108472589403391
1772556914243425300,2.17442529296875,0.0004581354442052543,0.00015271181473508477,-0.0012216945178806782
1772556914262198800,2.19319873046875,-0.0007635590736754239,0.00015271181473508477,-0.0006108472589403391
1772556914280972300,2.21197216796875,-0.00015271181473508477,-0.0004581354442052543,0
1772556914299745800,2.230745849609375,-0.00015271181473508477,0.00015271181473508477,0.0006108472589403391
1772556914318519600,2.24951953125,0.0004581354442052543,0.001374406274408102,-0.0006108472589403391
1772556914337293000,2.26829296875,-0.00015271181473508477,0.00015271181473508477,0
1772556914356066600,2.287066650390625,-0.00015271181473508477,0.00015271181473508477,0.0006108472589403391
1772556914374840000,2.305840087890625,0.0010689827613532543,-0.0004581354442052543,0
1772556914393613600,2.324613525390625,0.0004581354442052543,0.00015271181473508477,-0.0006108472589403391
1772556914412387300,2.34338720703125,0.0010689827613532543,-0.0004581354442052543,-0.0006108472589403391
1772556914431160800,2.362160888671875,-0.00015271181473508477,0.00015271181473508477,0.0006108472589403391
1772556914449934300,2.380934326171875,0.0010689827613532543,0.0007635590736754239,0
1772556914468707800,2.399707763671875,0.0004581354442052543,0.00015271181473508477,-0.0006108472589403391
1772556914487481300,2.4184814453125,0.0004581354442052543,-0.0004581354442052543,0.0006108472589403391
1772556914506255000,2.437255126953125,0.0010689827613532543,0.0007635590736754239,0.0006108472589403391
1772556914525028600,2.456028564453125,-0.00015271181473508477,-0.0004581354442052543,0.0006108472589403391
1772556914543802000,2.474802001953125,-0.00015271181473508477,-0.0010689827613532543,0
1772556914562575600,2.49357568359375,0.0004581354442052543,0.00015271181473508477,0.0012216945178806782
1772556914581349000,2.51234912109375,0.0016798300202935934,-0.0004581354442052543,-0.0006108472589403391
1772556914600123000,2.531122802734375,-0.00015271181473508477,-0.0004581354442052543,-0.0006108472589403391
1772556914618896400,2.549896484375,0.0004581354442052543,0.00015271181473508477,0
1772556914637670000,2.568669921875,-0.00015271181473508477,-0.0010689827613532543,0.0007635590736754239
1772556914656443400,2.587443359375,0.0004581354442052543,0.00015271181473508477,-0.0006108472589403391
1772556914675217200,2.606217041015625,0.0004581354442052543,0.0007635590736754239,-0.0006108472589403391
1772556914693990700,2.62499072265625,0.0010689827613532543,0.00015271181473508477,0
1772556914712764200,2.64376416015625,-0.00015271181473508477,-0.0010689827613532543,-0.0006108472589403391
1772556914731537700,2.66253759765625,0.0004581354442052543,-0.0010689827613532543,0.0006108472589403391
1772556914750311200,2.681311279296875,0.0004581354442052543,-0.0004581354442052543,-0.0012216945178806782
1772556914769084700,2.700084716796875,0.0004581354442052543,-0.0010689827613532543,0
1772556914787858400,2.7188583984375,-0.00015271181473508477,0.00015271181473508477,0
1772556914806632000,2.7376318359375,0.0010689827613532543,-0.0004581354442052543,0
1772556914825405400,2.756405517578125,0.0010689827613532543,-0.0004581354442052543,0.0006108472589403391
1772556914844179000,2.775178955078125,-0.0007635590736754239,-0.0004581354442052543,-0.0012216945178806782
1772556914862952400,2.793952392578125,0.0004581354442052543,0.00015271181473508477,0
1772556914881726200,2.812726318359375,-0.00015271181473508477,0.00015271181473508477,0.0006108472589403391
1772556914900499700,2.831499755859375,-0.00015271181473508477,-0.0010689827613532543,-0.0006108472589403391
1772556914919273200,2.850273193359375,0.0004581354442052543,-0.0010689827613532543,0
1772556914938046700,2.869046630859375,0.0010689827613532543,0.00015271181473508477,0.0006108472589403391
1772556914956820200,2.8878203125,-0.00015271181473508477,0.00015271181473508477,-0.0012216945178806782
1772556914975593700,2.90659375,-0.00015271181473508477,-0.0010689827613532543,0.0006108472589403391
1772556914994367200,2.9253671875,-0.0007635590736754239,0.00015271181473508477,-0.0018325417768210173
1772556915013141000,2.94414111328125,-0.00015271181473508477,0.00015271181473508477,0.0012216945178806782
1772556915031914500,2.96291455078125,-0.00015271181473508477,-0.0004581354442052543,-0.0006108472589403391
1772556915050688000,2.98168798828125,0.0004581354442052543,-0.0004581354442052543,-0.0006108472589403391
1772556915069461500,3.00046142578125,0.0004581354442052543,0.00015271181473508477,-0.0006108472589403391
1772556915088235000,3.019235107421875,-0.00015271181473508477,-0.0004581354442052543,-0.0006108472589403391
1772556915107008800,3.0380087890625,0.0004581354442052543,-0.0010689827613532543,0.0006108472589403391
1772556915125782300,3.0567822265625,-0.00015271181473508477,-0.0004581354442052543,0
1772556915144555800,3.0755556640625,-0.00015271181473508477,-0.0004581354442052543,0
1772556915163329300,3.094329345703125,-0.00015271181473508477,0.00015271181473508477,-0.0006108472589403391
1772556915182102800,3.113102783203125,-0.00015271181473508477,0.00015271181473508477,-0.0006108472589403391
1772556915200876300,3.131876220703125,-0.0007635590736754239,-0.0016798300202935934,-0.0006108472589403391
1772556915219649800,3.15064990234375,-0.00015271181473508477,0.0007635590736754239,-0.0006108472589403391
1772556915238423600,3.169423583984375,0.0010689827613532543,0.0007635590736754239,-0.0006108472589403391
1772556915257197000,3.188197021484375,-0.00015271181473508477,-0.0004581354442052543,0.0006108472589403391
1772556915275970600,3.206970458984375,-0.00015271181473508477,-0.0004581354442052543,0.0006108472589403391
1772556915294744000,3.225744140625,0.0004581354442052543,-0.0004581354442052543,0.0006108472589403391
1772556915313517600,3.244517578125,0.0004581354442052543,0.0007635590736754239,0
1772556915332291000,3.263291015625,0.0004581354442052543,0.00015271181473508477,0
1772556915351064600,3.282064697265625,0.0004581354442052543,0.001374406274408102,0
1772556915369838000,3.300838134765625,-0.00015271181473508477,-0.0010689827613532543,0.0012216945178806782
1772556915388611800,3.31961181640625,0.0010689827613532543,-0.0004581354442052543,-0.0006108472589403391
1772556915407385300,3.33838525390625,-0.00015271181473508477,0.00015271181473508477,-0.0006108472589403391
1772556915426158800,3.357158935546875,0.0004581354442052543,0.00015271181473508477,0
1772556915444932400,3.375932373046875,0.0004581354442052543,0.00015271181473508477,0
1772556915463705900,3.394705810546875,0.0004581354442052543,0.0007635590736754239,0
1772556915482479400,3.413479248046875,0.0004581354442052543,0.0007635590736754239,0.0006108472589403391
1772556915501252900,3.4322529296875,-0.0004581354442052543,-0.00030542362947016954,0
1772556915520026400,3.4510263671875,-0.0010689827613532543,-0.00030542362947016954,0
1772556915538799900,3.4697998046875,-0.0004581354442052543,0.00030542362947016954,0.0006108472589403391
1772556915557573600,3.48857373046875,0.00015271181473508477,-0.0015271181473508477,0
1772556915576347100,3.50734716796875,0.0007635590736754239,0.0009162708884105086,-0.0006108472589403391
1772556915595120600,3.52612060546875,-0.0004581354442052543,-0.00030542362947016954,0
1772556915613894100,3.54489404296875,0.00015271181473508477,-0.0009162708884105086,0
1772556915632667600,3.563667724609375,0.0007635590736754239,-0.00030542362947016954,-0.0006108472589403391
1772556915651441200,3.582441162109375,0.00015271181473508477,0.0009162708884105086,-0.0006108472589403391
1772556915670214700,3.601214599609375,-0.0004581354442052543,0.00030542362947016954,0.0012216945178806782
1772556915688988200,3.61998828125,-0.0004581354442052543,0.0009162708884105086,-0.0012216945178806782
1772556915707761700,3.63876171875,0.00015271181473508477,0.00030542362947016954,-0.0006108472589403391
1772556915726535400,3.657535400390625,-0.0004581354442052543,0.00030542362947016954,-0.0006108472589403391
1772556915745309000,3.676308837890625,-0.0004581354442052543,-0.00030542362947016954,0.0006108472589403391
1772556915764082400,3.69508251953125,0.00015271181473508477,0.0009162708884105086,-0.0006108472589403391
1772556915782856000,3.71385595703125,0.0007635590736754239,0.00030542362947016954,0
1772556915801629400,3.73262939453125,-0.0004581354442052543,-0.0015271181473508477,0
1772556915820403000,3.75140283203125,0.0007635590736754239,0.00030542362947016954,0.0006108472589403391
1772556915839176400,3.770176513671875,-0.0004581354442052543,-0.00030542362947016954,-0.0006108472589403391
1772556915857950000,3.788949951171875,-0.0004581354442052543,-0.0009162708884105086,0
1772556915876723500,3.807723388671875,-0.0004581354442052543,-0.00030542362947016954,-0.0012216945178806782
1772556915895497000,3.8264970703125,0.00015271181473508477,-0.00030542362947016954,0.0006108472589403391
1772556915914270500,3.8452705078125,-0.0010689827613532543,0.00030542362947016954,0
1772556915933044200,3.864044189453125,-0.0010689827613532543,-0.00030542362947016954,0.0006108472589403391
1772556915951817700,3.882817626953125,-0.0004581354442052543,0.0009162708884105086,0.0012216945178806782
1772556915970591200,3.90159130859375,-0.0004581354442052543,-0.00030542362947016954,-0.0012216945178806782
1772556915989364700,3.92036474609375,0.00015271181473508477,-0.00030542362947016954,-0.0012216945178806782
1772556916008138200,3.93913818359375,-0.0004581354442052543,-0.00030542362947016954,-0.0012216945178806782
1772556916026911700,3.957911865234375,0.00015271181473508477,0.00030542362947016954,-0.0006108472589403391
1772556916045685200,3.976685302734375,-0.0004581354442052543,0.00030542362947016954,0
1772556916064458800,3.995458740234375,0.00015271181473508477,0.0009162708884105086,0.0006108472589403391
1772556916083232300,4.014232177734375,0.00015271181473508477,-0.00030542362947016954,0
1772556916102005800,4.033005859375,0.0007635590736754239,0.00030542362947016954,-0.0006108472589403391
1772556916120779300,4.051779296875,-0.0004581354442052543,-0.0009162708884105086,0.0006108472589403391
1772556916139552800,4.070552734375,0.00015271181473508477,0.0009162708884105086,0
1772556916158326500,4.089326416015625,0.00015271181473508477,0.00030542362947016954,0
1772556916177099800,4.108099853515625,0.00015271181473508477,0.00030542362947016954,0
1772556916195873500,4.12687353515625,0.00015271181473508477,-0.00030542362947016954,0
1772556916214647000,4.14564697265625,0.00015271181473508477,0.00030542362947016954,-0.0006108472589403391
1772556916233420500,4.164420654296875,0.00015271181473508477,-0.00030542362947016954,-0.0012216945178806782
1772556916252194000,4.183194091796875,0.0007635590736754239,-0.0009162708884105086,0.0006108472589403391
1772556916270967600,4.201967529296875,-0.0004581354442052543,-0.0009162708884105086,0
1772556916289741000,4.220740966796875,-0.0004581354442052543,0.00030542362947016954,-0.0006108472589403391
1772556916308514600,4.2395146484375,0.00015271181473508477,-0.00030542362947016954,0
1772556916327288000,4.2582880859375,0.00015271181473508477,-0.00030542362947016954,0
1772556916346061600,4.2770615234375,0.00015271181473508477,0.00030542362947016954,-0.0006108472589403391
1772556916364835000,4.2958349609375,0.0007635590736754239,-0.00030542362947016954,0
1772556916383608600,4.314608642578125,-0.0004581354442052543,-0.0009162708884105086,0
1772556916402382000,4.333382080078125,0.0007635590736754239,-0.00030542362947016954,0.0006108472589403391
1772556916421155600,4.352155517578125,0.00015271181473508477,0.00030542362947016954,-0.0006108472589403391
1772556916439929000,4.37092919921875,0.00015271181473508477,-0.0009162708884105086,0.0006108472589403391
1772556916458702600,4.38970263671875,-0.0004581354442052543,0.00030542362947016954,0
1772556916477476000,4.40847607421875,-0.0004581354442052543,0.00030542362947016954,-0.0012216945178806782
1772556916496249600,4.42724951171875,-0.0004581354442052543,0.0009162708884105086,0.0006108472589403391
1772556916515023000,4.446023193359375,0.00015271181473508477,0.0009162708884105086,0.0006108472589403391
1772556916533796600,4.464796630859375,-0.0004581354442052543,0.00030542362947016954,0
1772556916552570400,4.4835703125,0.00015271181473508477,0.00030542362947016954,-0.0012216945178806782
1772556916571344000,4.50234375,-0.0004581354442052543,0.00030542362947016954,0
1772556916590117000,4.5211171875,0.00015271181473508477,0.00030542362947016954,0.0012216945178806782
1772556916608891000,4.539890869140625,0.0007635590736754239,0.0009162708884105086,0.0006108472589403391
1772556916627664400,4.558664306640625,-0.0004581354442052543,-0.00030542362947016954,0
1772556916646438000,4.57743798828125,-0.0010689827613532543,-0.00030542362947016954,0
1772556916665211400,4.59621142578125,0.00015271181473508477,-0.00030542362947016954,0
1772556916683985000,4.61498486328125,0.00015271181473508477,-0.00030542362947016954,0
1772556916702758400,4.63375830078125,0.0007635590736754239,0.00030542362947016954,-0.0006108472589403391
1772556916721532000,4.652531982421875,-0.0004581354442052543,0.00015271181473508477,-0.0006108472589403391
1772556916740305400,4.671305419921875,-0.0004581354442052543,-0.0009162708884105086,-0.0012216945178806782
1772556916759079000,4.690078857421875,0.00015271181473508477,0.00030542362947016954,-0.0012216945178806782
1772556916777852400,4.708852294921875,-0.0004581354442052543,-0.00030542362947016954,0
1772556916796626000,4.7276259765625,0.00015271181473508477,-0.00030542362947016954,0
1772556916815399400,4.7463994140625,0.0007635590736754239,0.00030542362947016954,0.0006108472589403391
1772556916834173000,4.7651728515625,0.0007635590736754239,-0.0009162708884105086,0.0018325417768210173
1772556916852946400,4.783946533203125,0.00015271181473508477,-0.00030542362947016954,0
1772556916871720000,4.802719970703125,0.0007635590736754239,-0.0009162708884105086,-0.0006108472589403391
1772556916890493400,4.821493408203125,-0.0010689827613532543,0.00030542362947016954,0
1772556916909267000,4.840266845703125,0.00015271181473508477,0.00030542362947016954,0
1772556916928040400,4.85904052734375,-0.0004581354442052543,0.00030542362947016954,0
1772556916946814000,4.87781396484375,0.00015271181473508477,-0.00030542362947016954,0
1772556916965587500,4.89658740234375,0.00015271181473508477,0.00030542362947016954,-0.0006108472589403391
1772556916984361000,4.91536083984375,0.00015271181473508477,0.00030542362947016954,0
1772556917003134500,4.934134521484375,0.00015271181473508477,-0.00030542362947016954,0.0006108472589403391
1772556917021908000,4.952907958984375,-0.0004581354442052543,0.0009162708884105086,-0.0006108472589403391
1772556917040681500,4.971681396484375,-0.0004581354442052543,-0.00030542362947016954,0.0006108472589403391
1772556917059455000,4.990455078125,0.0007635590736754239,0.00030542362947016954,0
1772556917078228500,5.009228515625,0.0007635590736754239,0.00030542362947016954,0
1772556917097002000,5.028001953125,-0.0004581354442052543,0.0009162708884105086,-0.0006108472589403391
1772556917115775500,5.046775390625,0.0007635590736754239,0.0015271181473508477,0
1772556917134549000,5.065549072265625,0.00015271181473508477,-0.00030542362947016954,-0.0006108472589403391
1772556917153322500,5.084322509765625,-0.0004581354442052543,0.0009162708884105086,0
1772556917172096000,5.103095947265625,-0.0004581354442052543,0.0009162708884105086,0.0006108472589403391
1772556917190869500,5.121869384765625,-0.0004581354442052543,-0.00030542362947016954,0
1772556917209643000,5.14064306640625,-0.0004581354442052543,-0.00030542362947016954,0
1772556917228416500,5.15941650390625,0.00015271181473508477,0.00030542362947016954,-0.0006108472589403391
1772556917247190000,5.17818994140625,-0.0004581354442052543,0.00030542362947016954,-0.0010689827613532543
1772556917265963500,5.196963623046875,-0.0004581354442052543,-0.00030542362947016954,-0.0004581354442052543
1772556917284737000,5.215737060546875,0.00015271181473508477,-0.00030542362947016954,0.0007635590736754239
1772556917303510500,5.234510498046875,-0.0004581354442052543,0.00030542362947016954,0.0007635590736754239
1772556917322284000,5.253283935546875,0.00015271181473508477,-0.00030542362947016954,0.0007635590736754239
1772556917341057500,5.2720576171875,0.0007635590736754239,-0.00030542362947016954,0.0007635590736754239
1772556917359831000,5.2908310546875,-0.0004581354442052543,0.00030542362947016954,0.0007635590736754239
1772556917378604500,5.3096044921875,-0.0004581354442052543,-0.00030542362947016954,0.00015271181473508477
1772556917397378000,5.3283779296875,0.00015271181473508477,0.00030542362947016954,0.00015271181473508477
1772556917416151600,5.347151611328125,-0.0004581354442052543,0.0009162708884105086,0.00015271181473508477
1772556917434925000,5.365925048828125,-0.0004581354442052543,0.0009162708884105086,0.00015271181473508477
1772556917453698600,5.384698486328125,-0.0004581354442052543,-0.00030542362947016954,-0.0004581354442052543
1772556917472472000,5.40347216796875,0.00015271181473508477,0.0009162708884105086,0.0007635590736754239
1772556917491245600,5.42224560546875,-0.0004581354442052543,-0.0015271181473508477,0.00015271181473508477
1772556917510019000,5.44101904296875,0.00015271181473508477,-0.00030542362947016954,-0.0004581354442052543
1772556917528792600,5.45979248046875,0.001374406274408102,-0.00030542362947016954,-0.0010689827613532543
1772556917547566000,5.478566162109375,0.00015271181473508477,0.0009162708884105086,0.001374406274408102
1772556917566339600,5.497339599609375,-0.0004581354442052543,0.00030542362947016954,-0.0004581354442052543
1772556917585113000,5.516113037109375,-0.0004581354442052543,0.00030542362947016954,-0.0004581354442052543
1772556917603886600,5.534886474609375,-0.0004581354442052543,0.00030542362947016954,-0.0010689827613532543
1772556917622660000,5.55366015625,-0.0004581354442052543,-0.00030542362947016954,0.00015271181473508477
1772556917641433600,5.57243359375,0.00015271181473508477,0.00030542362947016954,-0.0010689827613532543
1772556917660207000,5.59120703125,-0.0004581354442052543,0.00030542362947016954,0.00015271181473508477
1772556917678980400,5.60998046875,-0.0004581354442052543,0.00030542362947016954,-0.0004581354442052543
1772556917697753900,5.62875390625,-0.0010689827613532543,0.00030542362947016954,-0.0004581354442052543
1772556917716527400,5.64752734375,-0.0004581354442052543,-0.0009162708884105086,0.00015271181473508477
1772556917735300900,5.66630078125,0.00015271181473508477,-0.0009162708884105086,0.00015271181473508477
1772556917754074400,5.685074462890625,0.0007635590736754239,-0.00030542362947016954,0.00015271181473508477
1772556917772847900,5.703847900390625,-0.0004581354442052543,0.00030542362947016954,-0.0004581354442052543
1772556917791621400,5.722621337890625,-0.0004581354442052543,0.00030542362947016954,0.00015271181473508477
1772556917810395000,5.741394775390625,0.00015271181473508477,0.00030542362947016954,-0.0004581354442052543
1772556917829168400,5.76016845703125,-0.0004581354442052543,0.00030542362947016954,0.00015271181473508477
1772556917847942000,5.77894189453125,-0.0004581354442052543,-0.00030542362947016954,0.001374406274408102
1772556917866715400,5.79771533203125,-0.0004581354442052543,-0.00030542362947016954,-0.0004581354442052543
1772556917885489000,5.816489013671875,0.00015271181473508477,-0.00030542362947016954,0.001374406274408102
1772556917904262400,5.835262451171875,0.00015271181473508477,0.00030542362947016954,0.001374406274408102
1772556917923036000,5.854035888671875,-0.0004581354442052543,-0.0009162708884105086,0.0007635590736754239
1772556917941809400,5.872809326171875,0.0007635590736754239,-0.00030542362947016954,-0.0004581354442052543
1772556917960583000,5.8915830078125,0.0007635590736754239,0.00015271181473508477,-0.0016798300202935934
1772556917979356400,5.9103564453125,-0.0004581354442052543,0.0007635590736754239,-0.0010689827613532543
1772556917998130000,5.9291298828125,-0.0004581354442052543,-0.00030542362947016954,-0.0010689827613532543
1772556918016903400,5.9479033203125,0.0007635590736754239,-0.00030542362947016954,0.00015271181473508477
1772556918035677000,5.966677001953125,0.00015271181473508477,0.00030542362947016954,-0.0004581354442052543
1772556918054450400,5.985450439453125,0.00015271181473508477,0.00030542362947016954,0.0007635590736754239
1772556918073223700,6.0042236328125,0.00015271181473508477,-0.0009162708884105086,0.00015271181473508477
1772556918091997200,6.0229970703125,-0.0004581354442052543,-0.00030542362947016954,-0.0004581354442052543
1772556918110770700,6.041770751953125,0.00015271181473508477,0.00030542362947016954,0.001374406274408102
1772556918129544200,6.060544189453125,-0.0004581354442052543,-0.00030542362947016954,0.0007635590736754239
1772556918148317700,6.079317626953125,0.00015271181473508477,-0.00030542362947016954,0.00015271181473508477
1772556918167091200,6.09809130859375,-0.0004581354442052543,-0.0009162708884105086,-0.0010689827613532543
1772556918185864700,6.11686474609375,0.00015271181473508477,0.00030542362947016954,0.0007635590736754239
1772556918204638200,6.13563818359375,0.00015271181473508477,0.0009162708884105086,0.00015271181473508477
1772556918223411700,6.15441162109375,-0.0004581354442052543,-0.0009162708884105086,-0.0004581354442052543
1772556918242185200,6.173185302734375,0.00015271181473508477,0.0009162708884105086,0.00015271181473508477
1772556918260958700,6.191958740234375,0.00015271181473508477,-0.0021379655227065086,-0.0010689827613532543
1772556918279732200,6.210732177734375,-0.0004581354442052543,-0.00030542362947016954,-0.0016798300202935934
1772556918298505700,6.229505615234375,-0.0004581354442052543,-0.00030542362947016954,0.00015271181473508477
1772556918317279200,6.248279296875,-0.0004581354442052543,-0.00030542362947016954,0.00015271181473508477
1772556918336052700,6.267052734375,0.00015271181473508477,-0.00030542362947016954,-0.0004581354442052543
1772556918354826200,6.285826171875,-0.0004581354442052543,0.00030542362947016954,-0.0004581354442052543
1772556918373599700,6.304599853515625,0.00015271181473508477,0.0009162708884105086,0.00015271181473508477
1772556918392373200,6.323373291015625,0.0007635590736754239,0.00030542362947016954,-0.0004581354442052543
1772556918411146500,6.342146484375,-0.0004581354442052543,0.0009162708884105086,0.00015271181473508477
1772556918429920000,6.360919921875,-0.0004581354442052543,-0.00030542362947016954,0.00015271181473508477
1772556918448693500,6.379693603515625,0.00015271181473508477,-0.0009162708884105086,0.00015271181473508477
1772556918467467000,6.398467041015625,0.00015271181473508477,-0.00030542362947016954,-0.0004581354442052543
1772556918486240500,6.417240478515625,0.00015271181473508477,-0.00030542362947016954,0.00015271181473508477
1772556918505014000,6.436013916015625,0.00015271181473508477,-0.00030542362947016954,0.001374406274408102
1772556918523787500,6.45478759765625,0.00015271181473508477,0.00030542362947016954,0.00015271181473508477
1772556918542561000,6.47356103515625,0.0007635590736754239,0.00030542362947016954,-0.0004581354442052543
1772556918561334500,6.49233447265625,-0.0004581354442052543,0.0009162708884105086,-0.0004581354442052543
1772556918580108000,6.51110791015625,0.00015271181473508477,0.00030542362947016954,-0.0004581354442052543
1772556918598881500,6.529881591796875,0.00015271181473508477,0.0009162708884105086,0.0007635590736754239
1772556918617655000,6.548655029296875,0.00015271181473508477,-0.00030542362947016954,-0.0004581354442052543
1772556918636428500,6.567428466796875,-0.0004581354442052543,0.0009162708884105086,0.00015271181473508477
1772556918655202000,6.5862021484375,0.0007635590736754239,0.00030542362947016954,-0.0004581354442052543
1772556918673975300,6.604975341796875,0.00015271181473508477,-0.00030542362947016954,-0.0004581354442052543
1772556918692748800,6.623748779296875,0.00015271181473508477,0.00030542362947016954,0.00015271181473508477
1772556918711522300,6.642522216796875,-0.0004581354442052543,0.0009162708884105086,0.00015271181473508477
1772556918730295800,6.6612958984375,0.0007635590736754239,-0.00030542362947016954,-0.0004581354442052543
1772556918749069300,6.6800693359375,0.00015271181473508477,-0.00030542362947016954,-0.0010689827613532543
1772556918767842800,6.6988427734375,0.0007635590736754239,0.00030542362947016954,0.001374406274408102
1772556918786616300,6.7176162109375,0.0007635590736754239,0.00030542362947016954,-0.0010689827613532543
1772556918805389800,6.736389892578125,-0.0004581354442052543,0.0009162708884105086,-0.0010689827613532543
1772556918824163300,6.755163330078125,-0.0004581354442052543,0.00030542362947016954,0.00015271181473508477
1772556918842936800,6.773936767578125,-0.0004581354442052543,0.00030542362947016954,0.0007635590736754239
1772556918861710300,6.79271044921875,-0.0004581354442052543,0.00030542362947016954,0.0007635590736754239
1772556918880483800,6.81148388671875,0.00015271181473508477,0.00030542362947016954,-0.0010689827613532543
1772556918899257300,6.83025732421875,-0.0010689827613532543,0.00015271181473508477,-0.0016798300202935934
1772556918918030800,6.84903076171875,-0.0004581354442052543,0.0009162708884105086,0.0007635590736754239
1772556918936804000,6.86780419921875,0.0007635590736754239,0.0009162708884105086,0.00015271181473508477
1772556918955577600,6.88657763671875,-0.0004581354442052543,-0.0009162708884105086,0.0007635590736754239
1772556918974351000,6.90535107421875,-0.0004581354442052543,-0.0009162708884105086,-0.0004581354442052543
1772556918993124600,6.92412451171875,0.00015271181473508477,0.00030542362947016954,-0.0004581354442052543
1772556919011898000,6.942898193359375,0.0007635590736754239,0.00030542362947016954,0.001374406274408102
1772556919030671600,6.961671630859375,-0.0004581354442052543,-0.00030542362947016954,-0.0004581354442052543
1772556919049445000,6.980445068359375,-0.0004581354442052543,-0.00030542362947016954,0.00015271181473508477
1772556919068218600,6.999218505859375,-0.0004581354442052543,-0.00030542362947016954,0.00015271181473508477
1772556919086992100,7.0179921875,-0.0004581354442052543,0.0009162708884105086,-0.0004581354442052543
1772556919105765600,7.036765625,-0.0004581354442052543,-0.00030542362947016954,0.0007635590736754239
1772556919124539000,7.055538818359375,0.00015271181473508477,-0.0009162708884105086,0.00015271181473508477
1772556919143312400,7.0743125,-0.0004581354442052543,0.00030542362947016954,0.00015271181473508477
1772556919162086000,7.0930859375,0.0007635590736754239,0.00030542362947016954,-0.0004581354442052543
1772556919180859400,7.111859375,-0.0004581354442052543,0.00030542362947016954,0.00015271181473508477
1772556919199633000,7.1306328125,-0.0004581354442052543,0.00030542362947016954,-0.0010689827613532543
1772556919218406400,7.149406494140625,0.00015271181473508477,0.00030542362947016954,0.001374406274408102
1772556919237180000,7.168179931640625,0.00015271181473508477,0.00030542362947016954,0.00015271181473508477
1772556919255953400,7.186953369140625,-0.0010689827613532543,0.0009162708884105086,-0.0004581354442052543
1772556919274727000,7.205726806640625,0.00015271181473508477,-0.00030542362947016954,0.00015271181473508477
1772556919293500400,7.22450048828125,-0.0004581354442052543,0.0009162708884105086,-0.0004581354442052543
1772556919312274000,7.24327392578125,0.00015271181473508477,0.0009162708884105086,0.00015271181473508477
1772556919331047200,7.262047119140625,-0.0010689827613532543,-0.0015271181473508477,0.00015271181473508477
1772556919349820700,7.280820556640625,-0.0004581354442052543,-0.00030542362947016954,0.00015271181473508477
1772556919368594200,7.29959423828125,-0.0004581354442052543,-0.00030542362947016954,-0.0004581354442052543
1772556919387367700,7.31836767578125,-0.0004581354442052543,0.00015271181473508477,-0.0016798300202935934
1772556919406141200,7.33714111328125,0.00015271181473508477,0.0009162708884105086,0.0007635590736754239
1772556919424914700,7.355914794921875,-0.0004581354442052543,-0.00030542362947016954,0.00015271181473508477
1772556919443688200,7.374688232421875,0.00015271181473508477,0.0015271181473508477,0.00015271181473508477
1772556919462461700,7.393461669921875,0.00015271181473508477,0.00030542362947016954,0.0007635590736754239
1772556919481235200,7.412235107421875,-0.0004581354442052543,-0.00030542362947016954,-0.0004581354442052543
1772556919500008700,7.4310087890625,0.00015271181473508477,0.00030542362947016954,0.00015271181473508477
1772556919518782200,7.4497822265625,-0.0004581354442052543,-0.00030542362947016954,0.00015271181473508477
1772556919537555500,7.468555419921875,-0.0004581354442052543,-0.0009162708884105086,-0.0004581354442052543
1772556919556329000,7.487328857421875,-0.0004581354442052543,-0.00030542362947016954,-0.0004581354442052543
1772556919575102500,7.5061025390625,0.00015271181473508477,0.00030542362947016954,-0.0004581354442052543
1772556919593876000,7.5248759765625,-0.0004581354442052543,0.0009162708884105086,0.0007635590736754239
1772556919612649500,7.5436494140625,-0.0004581354442052543,0.0009162708884105086,-0.0004581354442052543
1772556919631423000,7.562423095703125,0.00015271181473508477,-0.0009162708884105086,-0.0010689827613532543
1772556919650196500,7.581196533203125,0.00015271181473508477,0.00030542362947016954,0.00015271181473508477
1772556919668970000,7.599969970703125,-0.0004581354442052543,0.00030542362947016954,-0.0010689827613532543
1772556919687743500,7.618743408203125,-0.0004581354442052543,0.00030542362947016954,-0.0004581354442052543
1772556919706517000,7.63751708984375,0.00015271181473508477,0.00030542362947016954,0.00015271181473508477
1772556919725290200,7.656290283203125,0.00015271181473508477,-0.00030542362947016954,0.0007635590736754239
1772556919744063700,7.675063720703125,0.00015271181473508477,-0.0009162708884105086,0.0007635590736754239
1772556919762837200,7.693837158203125,-0.0004581354442052543,-0.0009162708884105086,-0.0010689827613532543
1772556919781610800,7.71261083984375,0.00015271181473508477,-0.00030542362947016954,0.00015271181473508477
1772556919800384300,7.73138427734375,-0.0004581354442052543,-0.0009162708884105086,0.0007635590736754239
1772556919819157800,7.75015771484375,0.00015271181473508477,0.0009162708884105086,-0.0004581354442052543
1772556919837931300,7.76893115234375,-0.0004581354442052543,0.0009162708884105086,0.00015271181473508477
1772556919856704800,7.787704833984375,0.001374406274408102,0.00030542362947016954,-0.0004581354442052543
1772556919875478000,7.80647802734375,-0.0004581354442052543,-0.00030542362947016954,-0.0004581354442052543
1772556919894251500,7.82525146484375,-0.0004581354442052543,0.00030542362947016954,-0.0004581354442052543
1772556919913025000,7.84402490234375,0.00015271181473508477,-0.00030542362947016954,0.0007635590736754239
1772556919931798500,7.862798583984375,0.00015271181473508477,-0.00030542362947016954,0.001374406274408102
1772556919950572000,7.881572021484375,-0.0004581354442052543,0.0009162708884105086,-0.0004581354442052543
1772556919969345500,7.900345458984375,0.00015271181473508477,0.0009162708884105086,0.00015271181473508477
1772556919988119000,7.919119140625,-0.0004581354442052543,-0.00030542362947016954,0.0007635590736754239
1772556920006892500,7.937892578125,-0.0004581354442052543,0.00030542362947016954,0.00015271181473508477
1772556920025666000,7.956666015625,0.00015271181473508477,0.0009162708884105086,0.00015271181473508477
1772556920044439600,7.975439453125,-0.0004581354442052543,-0.00030542362947016954,0.0007635590736754239
1772556920063212800,7.994212890625,-0.0004581354442052543,0.00030542362947016954,-0.0004581354442052543
1772556920081986300,8.012986328125,0.0007635590736754239,-0.00030542362947016954,-0.0004581354442052543
1772556920100759800,8.031759765625,0.00015271181473508477,0.00030542362947016954,0.0007635590736754239
1772556920119533300,8.050533203125,-0.0004581354442052543,0.00030542362947016954,0.00015271181473508477
1772556920138306800,8.069306884765625,-0.0004581354442052543,-0.0015271181473508477,0.0007635590736754239
1772556920157080300,8.088080322265625,-0.0004581354442052543,-0.00030542362947016954,0.00015271181473508477
1772556920175853800,8.106853759765626,0.00015271181473508477,-0.0009162708884105086,0.00015271181473508477
1772556920194627000,8.125626953125,-0.0004581354442052543,0.00030542362947016954,0.0007635590736754239
1772556920213400600,8.144400634765624,0.00015271181473508477,0.00030542362947016954,-0.0004581354442052543
1772556920232174000,8.163174072265624,-0.0004581354442052543,0.0009162708884105086,0.001374406274408102
1772556920250947600,8.181947509765624,0.00015271181473508477,-0.00030542362947016954,0.00015271181473508477
1772556920269721000,8.20072119140625,0.00015271181473508477,-0.0009162708884105086,-0.0010689827613532543
1772556920288494600,8.21949462890625,0.0007635590736754239,-0.0009162708884105086,0.00015271181473508477
1772556920307268000,8.23826806640625,0.00015271181473508477,-0.0009162708884105086,0.0007635590736754239
1772556920326041600,8.25704150390625,0.0007635590736754239,-0.00030542362947016954,0.00015271181473508477
1772556920344815000,8.275815185546875,-0.0004581354442052543,-0.00030542362947016954,0.00015271181473508477
1772556920363588400,8.29458837890625,-0.0004581354442052543,-0.0009162708884105086,0.00015271181473508477
1772556920382361900,8.31336181640625,-0.0004581354442052543,0.0009162708884105086,-0.0004581354442052543
1772556920401135400,8.33213525390625,-0.0004581354442052543,-0.0009162708884105086,0.001374406274408102
1772556920419908900,8.350908935546874,0.0007635590736754239,0.0009162708884105086,0.0007635590736754239
1772556920438682400,8.369682373046874,0.0007635590736754239,-0.00030542362947016954,0.0007635590736754239
1772556920457455900,8.388455810546875,0.00015271181473508477,-0.00030542362947016954,-0.0010689827613532543
1772556920476229400,8.4072294921875,0.0007635590736754239,-0.00030542362947016954,0.00015271181473508477
1772556920495003000,8.4260029296875,0.00015271181473508477,-0.00030542362947016954,0.0007635590736754239
1772556920513776000,8.444776123046875,0.00015271181473508477,0.00030542362947016954,-0.0004581354442052543
1772556920532549600,8.463549560546875,0.00015271181473508477,-0.0009162708884105086,0.00015271181473508477
1772556920551323100,8.4823232421875,-0.0004581354442052543,0.00030542362947016954,0.00015271181473508477
1772556920570096600,8.5010966796875,0.00015271181473508477,0.0009162708884105086,0.00015271181473508477
1772556920588870100,8.5198701171875,0.00015271181473508477,-0.0009162708884105086,-0.0004581354442052543
1772556920607643600,8.5386435546875,0.0007635590736754239,0.00030542362947016954,-0.0004581354442052543
1772556920626417200,8.557417236328124,-0.0010689827613532543,-0.0009162708884105086,0.0007635590736754239
1772556920645190400,8.5761904296875,-0.0004581354442052543,0.00030542362947016954,-0.0004581354442052543
1772556920663964000,8.5949638671875,-0.0004581354442052543,0.00030542362947016954,0.00015271181473508477
1772556920682737400,8.6137373046875,-0.0004581354442052543,0.00030542362947016954,0.00015271181473508477
1772556920701511000,8.632510986328125,0.00015271181473508477,0.00030542362947016954,0.00015271181473508477
1772556920720284400,8.651284423828125,0.00015271181473508477,0.0009162708884105086,-0.0004581354442052543
1772556920739058000,8.670057861328125,-0.0004581354442052543,0.0007635590736754239,-0.0018325417768210173
1772556920757831400,8.68883154296875,0.0007635590736754239,0.00030542362947016954,0.0006108472589403391
1772556920776604700,8.707604736328125,0.0007635590736754239,-0.00030542362947016954,0.0006108472589403391
1772556920795378200,8.726378173828126,0.0007635590736754239,0.00030542362947016954,0.0006108472589403391
1772556920814151700,8.745151611328126,0.001374406274408102,0.0009162708884105086,0.0006108472589403391
1772556920832925200,8.76392529296875,-0.0010689827613532543,-0.00030542362947016954,0.0006108472589403391
1772556920851698700,8.78269873046875,-0.0004581354442052543,0.0009162708884105086,0.0006108472589403391
1772556920870472200,8.80147216796875,0.00015271181473508477,0.00030542362947016954,-0.0006108472589403391
1772556920889245700,8.82024560546875,0.00015271181473508477,-0.00030542362947016954,0
1772556920908019200,8.839019287109375,0.00015271181473508477,-0.00030542362947016954,-0.0006108472589403391
1772556920926792400,8.85779248046875,-0.0004581354442052543,-0.00030542362947016954,0.0006108472589403391
1772556920945566000,8.87656591796875,0.0007635590736754239,0.00030542362947016954,0.0006108472589403391
1772556920964339500,8.89533935546875,-0.0004581354442052543,-0.00030542362947016954,-0.0006108472589403391
1772556920983113000,8.914113037109376,-0.0010689827613532543,0.00030542362947016954,-0.0006108472589403391
1772556921001886500,8.932886474609376,0.00015271181473508477,-0.00030542362947016954,0
1772556921020660000,8.951659912109376,0.00015271181473508477,0.00030542362947016954,0
1772556921039433500,8.97043359375,-0.0004581354442052543,0.00030542362947016954,0
1772556921058206700,8.989206787109374,0.00015271181473508477,-0.00030542362947016954,-0.0006108472589403391
1772556921076980200,9.007980224609375,0.00015271181473508477,-0.00030542362947016954,-0.0006108472589403391
1772556921095753700,9.026753662109375,0.0007635590736754239,0.00030542362947016954,0.0006108472589403391
1772556921114527200,9.04552734375,0.00015271181473508477,-0.00030542362947016954,-0.0006108472589403391
1772556921133300700,9.06430078125,-0.0004581354442052543,0.0009162708884105086,0
1772556921152074200,9.08307421875,-0.0004581354442052543,0.0009162708884105086,0.0006108472589403391
1772556921170847700,9.10184765625,0.00015271181473508477,-0.00030542362947016954,0
1772556921189621000,9.12062109375,-0.0004581354442052543,-0.00030542362947016954,-0.0006108472589403391
1772556921208394500,9.13939453125,0.0007635590736754239,0.0009162708884105086,0.0006108472589403391
1772556921227168000,9.15816796875,-0.0010689827613532543,0.00030542362947016954,-0.0006108472589403391
1772556921245941500,9.17694140625,-0.0010689827613532543,-0.0009162708884105086,0
1772556921264715000,9.195715087890624,-0.0004581354442052543,0.00030542362947016954,0
1772556921283488500,9.214488525390625,-0.0004581354442052543,-0.00030542362947016954,0.0006108472589403391
1772556921302262000,9.233261962890625,0.00015271181473508477,-0.00030542362947016954,0
1772556921321035300,9.25203515625,0.0007635590736754239,0.00030542362947016954,0
1772556921339808800,9.270808837890625,0.00015271181473508477,0.0009162708884105086,0
1772556921358582300,9.289582275390625,-0.0004581354442052543,0.00030542362947016954,-0.0006108472589403391
1772556921377355800,9.308355712890625,0.00015271181473508477,-0.00030542362947016954,0.0006108472589403391
1772556921396129300,9.32712939453125,-0.0004581354442052543,-0.00030542362947016954,-0.0006108472589403391
1772556921414902800,9.34590283203125,0.0007635590736754239,0.00030542362947016954,0
1772556921433676000,9.364676025390626,0.0007635590736754239,0.0009162708884105086,-0.0006108472589403391
1772556921452449500,9.383449462890624,0.0007635590736754239,0.0009162708884105086,-0.0006108472589403391
1772556921471223000,9.40222314453125,-0.0004581354442052543,-0.00030542362947016954,0.0006108472589403391
1772556921489996500,9.42099658203125,0.00015271181473508477,0.00030542362947016954,-0.0006108472589403391
1772556921508770000,9.43977001953125,0.00015271181473508477,-0.0009162708884105086,-0.0006108472589403391
1772556921527543600,9.45854345703125,0.00015271181473508477,0.00030542362947016954,0
1772556921546316800,9.47731689453125,0.0007635590736754239,0.00030542362947016954,-0.0006108472589403391
1772556921565090300,9.49609033203125,-0.0004581354442052543,0.00030542362947016954,0
1772556921583863800,9.51486376953125,-0.0004581354442052543,0.0009162708884105086,0
1772556921602637300,9.53363720703125,0.0007635590736754239,0.00030542362947016954,0.0012216945178806782
1772556921621410800,9.552410888671876,0.0007635590736754239,0.00030542362947016954,0
1772556921640184300,9.571184326171876,-0.0004581354442052543,-0.00030542362947016954,0.0006108472589403391
1772556921658957800,9.589957763671874,0.00015271181473508477,-0.00030542362947016954,0.0006108472589403391
1772556921677731000,9.60873095703125,-0.0004581354442052543,0.00030542362947016954,-0.0006108472589403391
1772556921696504600,9.627504638671875,0.0007635590736754239,0.00030542362947016954,-0.0006108472589403391
1772556921715278000,9.646278076171875,0.00015271181473508477,0.00030542362947016954,0
1772556921734051600,9.665051513671875,0.00015271181473508477,-0.00030542362947016954,0
1772556921752825000,9.6838251953125,-0.0004581354442052543,0.0009162708884105086,0.0006108472589403391
1772556921771598600,9.7025986328125,-0.0004581354442052543,-0.00030542362947016954,0.0006108472589403391
1772556921790372000,9.7213720703125,0.00015271181473508477,0.00030542362947016954,0
1772556921809145300,9.740145263671875,0.00015271181473508477,-0.0009162708884105086,-0.0006108472589403391
1772556921827918800,9.7589189453125,-0.0010689827613532543,0.00030542362947016954,0.0006108472589403391
1772556921846692400,9.7776923828125,-0.0004581354442052543,-0.00030542362947016954,0.0006108472589403391
1772556921865465900,9.7964658203125,0.00015271181473508477,0.00030542362947016954,-0.0006108472589403391
1772556921884239400,9.8152392578125,0.0007635590736754239,0.0015271181473508477,0.0018325417768210173
1772556921903012900,9.834012939453125,0.00015271181473508477,0.0009162708884105086,-0.0006108472589403391
1772556921921786000,9.8527861328125,0.0007635590736754239,0.00030542362947016954,0.0006108472589403391
1772556921940559600,9.8715595703125,-0.0004581354442052543,-0.0009162708884105086,-0.0018325417768210173
1772556921959333000,9.8903330078125,-0.0004581354442052543,0.00030542362947016954,0
1772556921978106600,9.909106689453125,0.00015271181473508477,-0.0015271181473508477,-0.0030542362947016954
1772556921996880100,9.927880126953125,-0.0004581354442052543,0.00030542362947016954,0
