time,seconds_elapsed,z,y,x
1772556991425933000,0.25293310546875,-0.023958206176757812,0.0010014548897743225,0.00009059160947799683
1772556991444706000,0.2717060546875,-0.02874469757080078,0.0035151392221450806,-0.00961747020483017
1772556991463479000,0.29047900390625,-0.026350975036621094,0.0045492202043533325,-0.019082888960838318
1772556991482252000,0.309251953125,-0.031139373779296875,0.00700020045042038,-0.014576323330402374
1772556991501025000,0.32802490234375,-0.02754688262939453,-0.0001264512538909912,-0.012013696134090424
1772556991519798000,0.346798095703125,-0.026348114013671875,0.009712494909763336,-0.007301338016986847
1772556991538571000,0.365571044921875,-0.02874279022216797,-0.004578791558742523,0.0012890100479125977
1772556991557343700,0.38434375,-0.025155067443847656,0.0003822222352027893,0.004642769694328308
1772556991576116700,0.40311669921875,-0.022757530212402344,-0.007874920964241028,0.007464215159416199
1772556991594889700,0.4218896484375,-0.02634906768798828,-0.002045378088951111,-0.003441326320171356
1772556991613662700,0.440662841796875,-0.03113555908203125,0.0023858249187469482,-0.008146487176418304
1772556991632435700,0.459435791015625,-0.022759437561035156,0.005795247852802277,-0.012012168765068054
1772556991651208700,0.478208740234375,-0.028745651245117188,0.0021344125270843506,-0.0035780444741249084
1772556991669981400,0.4969814453125,-0.02754974365234375,0.003206126391887665,-0.0046946704387664795
1772556991688754400,0.51575439453125,-0.023957252502441406,-0.002628311514854431,-0.0007869377732276917
1772556991707527400,0.53452734375,-0.023957252502441406,0.0006583482027053833,-0.0021170005202293396
1772556991726300400,0.553300537109375,-0.0311431884765625,0.0006825625896453857,0.001535162329673767
1772556991745073400,0.572073486328125,-0.03473663330078125,-0.004330098628997803,-0.006995588541030884
1772556991763846400,0.590846435546875,-0.02635955810546875,-0.0018566399812698364,-0.001104407012462616
1772556991782619400,0.609619384765625,-0.023967742919921875,0.0017592459917068481,0.002446584403514862
1772556991801392000,0.62839208984375,-0.032347679138183594,0.0040273889899253845,0.0036601275205612183
1772556991820165000,0.6471650390625,-0.02636432647705078,0.008443787693977356,-0.0038581863045692444
1772556991838938000,0.665938232421875,-0.028756141662597656,0.003805100917816162,-0.0013337284326553345
1772556991857711000,0.684711181640625,-0.025167465209960938,0.0010732859373092651,-0.01408272236585617
1772556991876484000,0.703484130859375,-0.02636432647705078,0.009481526911258698,-0.006021067500114441
1772556991895256800,0.7222568359375,-0.027559280395507812,-0.0013917386531829834,-0.005852505564689636
1772556991914029800,0.74102978515625,-0.02995586395263672,0.0027209222316741943,0.005872108042240143
1772556991932802800,0.759802734375,-0.032349586486816406,-0.0009070411324501038,-0.0002447739243507385
1772556991951575800,0.778575927734375,-0.020379066467285156,-0.008008159697055817,0.007253244519233704
1772556991970348800,0.797348876953125,-0.031151771545410156,-0.0066956281661987305,0.007361747324466705
1772556991989121500,0.81612158203125,-0.031151771545410156,-0.002116851508617401,0.0023525580763816833
1772556992007894500,0.83489453125,-0.03115081787109375,0.006132781505584717,-0.007411882281303406
1772556992026667500,0.85366748046875,-0.022769927978515625,0.004784435033798218,-0.015768826007843018
1772556992045440500,0.8724404296875,-0.028753280639648438,0.00484032928943634,-0.019132032990455627
1772556992064213500,0.891213623046875,-0.031149864196777344,0.004768289625644684,-0.018173813819885254
1772556992082986200,0.909986328125,-0.020379066467285156,-0.0009791478514671326,-0.0026068389415740967
1772556992101759200,0.92875927734375,-0.0287628173828125,0.0037701204419136047,-0.0005077868700027466
1772556992120532200,0.9475322265625,-0.02996063232421875,0.001512080430984497,0.006633840501308441
1772556992139305200,0.96630517578125,-0.027566909790039062,0.00030947476625442505,0.009235836565494537
1772556992158078200,0.985078125,-0.022780418395996094,0.0014303475618362427,0.006501108407974243
1772556992176851000,1.003850830078125,-0.028764724731445312,0.00013440102338790894,0.001729123294353485
1772556992195624000,1.0226240234375,-0.03474903106689453,0.0009344890713691711,-0.009025976061820984
1772556992214397000,1.04139697265625,-0.02637004852294922,0.00101577490568161,-0.007810331881046295
1772556992233170000,1.060169921875,-0.026366233825683594,-0.00009865313768386841,-0.015848204493522644
1772556992251943000,1.07894287109375,-0.0299530029296875,0.008455269038677216,-0.00993628054857254
1772556992270715600,1.097715576171875,-0.03713512420654297,0.003610551357269287,-0.012252584099769592
1772556992289488600,1.116488525390625,-0.02516651153564453,-0.00011323392391204834,-0.014624223113059998
1772556992308261600,1.13526171875,-0.03354644775390625,-0.0008664950728416443,-0.00014940649271011353
1772556992327034600,1.15403466796875,-0.031151771545410156,0.001607269048690796,0.005851157009601593
1772556992345807400,1.172807373046875,-0.025167465209960938,-0.006887443363666534,0.009575068950653076
1772556992364580400,1.191580322265625,-0.032349586486816406,-0.008031345903873444,0.012075483798980713
1772556992383353300,1.210353271484375,-0.027564048767089844,0.006323300302028656,0.007982723414897919
1772556992402126300,1.229126220703125,-0.031157493591308594,-0.0071244314312934875,-0.0013812482357025146
1772556992420899300,1.2478994140625,-0.025176048278808594,0.011834055185317993,0.0016166642308235168
1772556992439672000,1.266672119140625,-0.03235626220703125,-0.00651145726442337,-0.0205395445227623
1772556992458445000,1.285445068359375,-0.02637195587158203,0.006620414555072784,-0.017159298062324524
1772556992477218000,1.304218017578125,-0.029964447021484375,-0.0017706379294395447,-0.011265017092227936
1772556992495991000,1.322990966796875,-0.02756786346435547,0.0020904019474983215,-0.0038583949208259583
1772556992514763800,1.341763671875,-0.02996540069580078,-0.004232905805110931,-0.007327280938625336
1772556992533536800,1.360536865234375,-0.026373863220214844,-0.004984281957149506,0.008191347122192383
1772556992552309800,1.379309814453125,-0.03116130828857422,-0.0036658495664596558,0.00700918585062027
1772556992571082800,1.398082763671875,-0.025175094604492188,0.00003096461296081543,0.005621775984764099
1772556992589855500,1.41685546875,-0.03116130828857422,-0.003784455358982086,0.003187403082847595
1772556992608628500,1.43562841796875,-0.027570724487304688,0.006793618202209473,-0.0066311657428741455
1772556992627401500,1.4544013671875,-0.038341522216796875,0.0019760653376579285,-0.01253730058670044
1772556992646174500,1.473174560546875,-0.03474903106689453,-0.0028652921319007874,-0.007316939532756805
1772556992664947500,1.491947509765625,-0.028763771057128906,-0.00036391615867614746,-0.006362058222293854
1772556992683720200,1.51072021484375,-0.023973464965820312,0.007077857851982117,-0.008678197860717773
1772556992702493200,1.5294931640625,-0.03833580017089844,-0.0006818249821662903,0.001961521804332733
1772556992721266200,1.54826611328125,-0.02875804901123047,0.0029278844594955444,-0.004116624593734741
1772556992740039200,1.5670390625,-0.02636432647705078,0.0005729645490646362,-0.0003895759582519531
1772556992758812000,1.58581201171875,-0.02875995635986328,0.0017489716410636902,0.0031049251556396484
1772556992777585000,1.6045849609375,-0.029954910278320312,0.0017195641994476318,0.0007272809743881226
1772556992796358000,1.62335791015625,-0.026366233825683594,0.002993188798427582,-0.0017027929425239563
1772556992815131000,1.642130859375,-0.02875995635986328,0.00017347931861877441,-0.0063568949699401855
1772556992833903600,1.660903564453125,-0.03953266143798828,0.0022246167063713074,-0.019609063863754272
1772556992852676600,1.679676513671875,-0.02995586395263672,0.0036264583468437195,-0.017187796533107758
1772556992871449600,1.69844970703125,-0.02636241912841797,0.0014299377799034119,-0.012366808950901031
1772556992890222600,1.71722265625,-0.03354644775390625,0.00868825614452362,-0.00516461580991745
1772556992908995300,1.735995361328125,-0.03594207763671875,0.008513569831848145,-0.004116319119930267
1772556992927768300,1.754768310546875,-0.02756214141845703,0.005324967205524445,0.001829095184803009
1772556992946541300,1.773541259765625,-0.037136077880859375,-0.0004474073648452759,0.0055492594838142395
1772556992965314300,1.792314208984375,-0.040729522705078125,0.004130102694034576,0.0018743276596069336
1772556992984087300,1.81108740234375,-0.029956817626953125,0.003807753324508667,-0.0027334168553352356
1772556993002860000,1.829860107421875,-0.028760910034179688,0.0036513805389404297,-0.005361728370189667
1772556993021633000,1.848633056640625,-0.04073333740234375,0.002600051462650299,-0.006494708359241486
1772556993040406000,1.867406005859375,-0.032352447509765625,0.00021050870418548584,-0.0029722973704338074
1772556993059179000,1.886178955078125,-0.026368141174316406,0.0024580582976341248,-0.01023777574300766
1772556993077951700,1.90495166015625,-0.03594398498535156,-0.0023245811462402344,-0.011104926466941833
1772556993096724700,1.923724853515625,-0.03713703155517578,0.011060349643230438,-0.0016351565718650818
1772556993115497700,1.942497802734375,-0.028760910034179688,-0.00446213036775589,0.00103682279586792
1772556993134270700,1.961270751953125,-0.02516937255859375,-0.005565807223320007,0.006985120475292206
1772556993153043500,1.98004345703125,-0.03235149383544922,-0.0008286163210868835,0.005713537335395813
1772556993171816400,1.99881640625,-0.022775650024414062,0.0011512935161590576,0.0007972866296768188
1772556993190589400,2.01758935546875,-0.028763771057128906,0.0033896639943122864,-0.01125391572713852
1772556993209362400,2.036362548828125,-0.03474617004394531,0.004791878163814545,-0.008828997611999512
1772556993228135200,2.05513525390625,-0.02875995635986328,-0.0022590085864067078,-0.00251876562833786
1772556993246908200,2.073908203125,-0.028760910034179688,0.0013659894466400146,0.0007953420281410217
1772556993265681200,2.09268115234375,-0.037140846252441406,0.0012496188282966614,-0.0014246553182601929
1772556993284454100,2.1114541015625,-0.03594398498535156,0.0025422871112823486,0.003384537994861603
1772556993303227000,2.130226806640625,-0.03235340118408203,0.0008441954851150513,-0.006108306348323822
1772556993322000000,2.148999755859375,-0.029959678649902344,-0.0001421794295310974,-0.006193414330482483
1772556993340772900,2.16777294921875,-0.039536476135253906,-0.002592809498310089,0.00011387467384338379
1772556993359545900,2.1865458984375,-0.025173187255859375,0.0020789727568626404,-0.0027605369687080383
1772556993378318800,2.20531884765625,-0.02996063232421875,-0.0015632063150405884,0.0036570578813552856
1772556993397091600,2.224091552734375,-0.039534568786621094,-0.00018546730279922485,0.0012848526239395142
1772556993415864600,2.242864501953125,-0.032352447509765625,0.0020614564418792725,-0.007271282374858856
1772556993434637600,2.261637451171875,-0.02875995635986328,0.011489547789096832,-0.012063153088092804
1772556993453410600,2.28041064453125,-0.02636432647705078,0.004371084272861481,-0.016758516430854797
1772556993472183600,2.29918359375,-0.034745216369628906,0.002066470682621002,-0.007116444408893585
1772556993490956300,2.317956298828125,-0.037138938903808594,-0.005109012126922607,-0.0057966336607933044
1772556993509729300,2.336729248046875,-0.033550262451171875,0.0023429617285728455,0.0011519268155097961
1772556993528502300,2.355502197265625,-0.03235626220703125,-0.0037609636783599854,0.014517225325107574
1772556993547275300,2.374275146484375,-0.027568817138671875,0.0022805556654930115,0.004550546407699585
1772556993566048000,2.393048095703125,-0.03594684600830078,0.005216673016548157,-0.002699427306652069
1772556993584821000,2.411821044921875,-0.026372909545898438,0.005450017750263214,-0.0038238465785980225
1772556993603594000,2.430593994140625,-0.02637195587158203,0.005157433450222015,-0.013458862900733948
1772556993622367000,2.449366943359375,-0.025175094604492188,-0.00769960880279541,-0.005699649453163147
1772556993641140000,2.468139892578125,-0.0227813720703125,0.0017226338386535645,-0.006232321262359619
1772556993659912700,2.48691259765625,-0.03834342956542969,0.005349710583686829,-0.0003090202808380127
1772556993678685700,2.505685791015625,-0.03355598449707031,-0.0027870982885360718,0.004648245871067047
1772556993697458700,2.524458740234375,-0.025177001953125,-0.00038936734199523926,0.008087538182735443
1772556993716231700,2.543231689453125,-0.03236103057861328,0.0017073601484298706,-0.0015196427702903748
1772556993735004400,2.56200439453125,-0.03355693817138672,-0.003224208950996399,-0.0025407522916793823
1772556993753777400,2.58077734375,-0.023980140686035156,0.005659893155097961,0.0008294731378555298
1772556993772550400,2.59955029296875,-0.026369094848632812,0.0008154362440109253,-0.0048102885484695435
1772556993791323400,2.618323486328125,-0.035945892333984375,-0.0006474032998085022,-0.005920909345149994
1772556993810096000,2.63709619140625,-0.03115367889404297,-0.0006842240691184998,-0.007910288870334625
1772556993828869000,2.655869140625,-0.035943031311035156,-0.0028656497597694397,0.000323563814163208
1772556993847642000,2.67464208984375,-0.029959678649902344,-0.0004299357533454895,0.0012506768107414246
1772556993866415000,2.6934150390625,-0.035943031311035156,-0.0015966147184371948,-0.0034161657094955444
1772556993885188000,2.71218798828125,-0.022777557373046875,0.0007668882608413696,0.00015664845705032349
1772556993903960800,2.7309609375,-0.027565956115722656,-0.000340096652507782,0.003712087869644165
1772556993922733800,2.74973388671875,-0.029962539672851562,0.003189489245414734,0.002329811453819275
1772556993941506800,2.7685068359375,-0.029959678649902344,0.0076449960470199585,-0.00602027028799057
1772556993960279800,2.78727978515625,-0.03714179992675781,-0.0005729645490646362,-0.00219755619764328
1772556993979052800,2.806052734375,-0.03354930877685547,-0.0030738040804862976,-0.000862419605255127
1772556993997825500,2.824825439453125,-0.027564048767089844,0.006303012371063232,-0.0069611892104148865
1772556994016598500,2.8435986328125,-0.03115558624267578,-0.004609972238540649,-0.005635842680931091
1772556994035371500,2.86237158203125,-0.035943031311035156,0.0016208216547966003,0.00027930736541748047
1772556994054144500,2.88114453125,-0.029956817626953125,0.0017734766006469727,0.0015539154410362244
1772556994072917500,2.89991748046875,-0.03474617004394531,0.0025864392518997192,-0.0055991411209106445
1772556994091690200,2.918690185546875,-0.03594017028808594,0.006475105881690979,-0.003122679889202118
1772556994110463200,2.937463134765625,-0.03594017028808594,0.0016893371939659119,-0.0007042884826660156
1772556994129236200,2.956236328125,-0.026365280151367188,-0.003161817789077759,-0.000287860631942749
1772556994148009200,2.97500927734375,-0.023969650268554688,0.007720813155174255,-0.003011569380760193
1772556994166782200,2.9937822265625,-0.03713512420654297,0.0016032233834266663,-0.007600076496601105
1772556994185555000,3.012554931640625,-0.035938262939453125,-0.0019816607236862183,-0.007419057190418243
1772556994204328000,3.031327880859375,-0.02157306671142578,0.006337366998195648,-0.00520072877407074
1772556994223101000,3.050100830078125,-0.028754234313964844,-0.0029927417635917664,-0.0026307106018066406
1772556994241874000,3.0688740234375,-0.03234386444091797,-0.0041447654366493225,0.0046832263469696045
1772556994260647000,3.08764697265625,-0.03234386444091797,0.007615804672241211,-0.0026223063468933105
1772556994279419600,3.106419677734375,-0.028753280639648438,-0.0021080374717712402,-0.005046173930168152
1772556994298192600,3.125192626953125,-0.03234386444091797,0.0017923042178153992,-0.000029101967811584473
1772556994316965600,3.143965576171875,-0.040721893310546875,0.002932906150817871,0.0022938326001167297
1772556994335738600,3.162738525390625,-0.03114795684814453,0.006358914077281952,-0.005178764462471008
1772556994354511600,3.18151171875,-0.032344818115234375,0.0016663968563079834,0.0008852556347846985
1772556994373284400,3.200284423828125,-0.03114604949951172,0.002571798861026764,-0.004913680255413055
1772556994392057300,3.219057373046875,-0.027555465698242188,0.00033105164766311646,-0.0003074854612350464
1772556994410830300,3.237830322265625,-0.032344818115234375,0.003977440297603607,-0.001591011881828308
1772556994429603300,3.256603271484375,-0.027557373046875,0.0029314905405044556,-0.0038012713193893433
1772556994448376300,3.275376220703125,-0.023964881896972656,0.002811431884765625,0.0010174810886383057
1772556994467149000,3.294149169921875,-0.027555465698242188,-0.0005804374814033508,0.006053641438484192
1772556994485922000,3.312922119140625,-0.03234386444091797,0.005008526146411896,0.00003746151924133301
1772556994504695000,3.331695068359375,-0.032341957092285156,0.005574628710746765,0.007029294967651367
1772556994523468000,3.350468017578125,-0.031145095825195312,0.007764309644699097,0.004766292870044708
1772556994542240800,3.36924072265625,-0.026355743408203125,0.00023033469915390015,-0.006966672837734222
1772556994561013800,3.388013671875,-0.03234100341796875,0.0036155208945274353,-0.010465651750564575
1772556994579786800,3.406786865234375,-0.022764205932617188,0.0028041377663612366,-0.0022653862833976746
1772556994598559700,3.425559814453125,-0.033538818359375,0.001395292580127716,-0.0020884424448013306
1772556994617332700,3.444332763671875,-0.02874755859375,0.0015248432755470276,0.0026261210441589355
1772556994636105700,3.463105712890625,-0.02994251251220703,0.0005434677004814148,0.006290130317211151
1772556994654878500,3.48187841796875,-0.03353404998779297,0.006676629185676575,0.007499903440475464
1772556994673651500,3.5006513671875,-0.02156352996826172,-0.0032123401761054993,0.004291333258152008
1772556994692424400,3.519424560546875,-0.03233814239501953,0.0013725683093070984,-0.003016337752342224
1772556994711197400,3.538197509765625,-0.029943466186523438,0.0001494884490966797,-0.0043172165751457214
1772556994729970400,3.556970458984375,-0.0263519287109375,0.0052186474204063416,-0.0007780864834785461
1772556994748743200,3.5757431640625,-0.02994060516357422,0.00645359605550766,-0.005706667900085449
1772556994767516200,3.59451611328125,-0.037123680114746094,0.005212239921092987,0.002672828733921051
1772556994786289200,3.6132890625,-0.03113842010498047,0.0016303658485412598,-0.00067109614610672
1772556994805062100,3.632062255859375,-0.035927772521972656,0.0063635557889938354,0.0003811493515968323
1772556994823835000,3.6508349609375,-0.03832244873046875,-0.0009192824363708496,-0.0018007531762123108
1772556994842607900,3.66960791015625,-0.02874755859375,-0.0021094009280204773,-0.0021130815148353577
1772556994861380900,3.688380859375,-0.03592967987060547,-0.004514344036579132,-0.0031177401542663574
1772556994880153900,3.70715380859375,-0.03473091125488281,0.00045546144247055054,-0.00568796694278717
1772556994898926800,3.7259267578125,-0.0323333740234375,0.005380898714065552,-0.005508154630661011
1772556994917699800,3.744699951171875,-0.02754688262939453,0.004275277256965637,-0.002172335982322693
1772556994936472600,3.76347265625,-0.03114032745361328,0.0016205385327339172,-0.004463255405426025
1772556994955245600,3.78224560546875,-0.02994251251220703,0.002688392996788025,-0.007983140647411346
1772556994974018600,3.8010185546875,-0.02874469757080078,0.008025981485843658,0.005088336765766144
1772556994992791600,3.81979150390625,-0.0311431884765625,0.007588021457195282,0.0037994682788848877
1772556995011564500,3.838564453125,-0.034732818603515625,0.0014703348278999329,0.0014625415205955505
1772556995030337300,3.857337158203125,-0.025156021118164062,0.0038775652647018433,-0.0021224692463874817
1772556995049110300,3.8761103515625,-0.02515697479248047,0.003828182816505432,-0.0009214878082275391
1772556995067883300,3.89488330078125,-0.03233909606933594,0.007192090153694153,-0.006894074380397797
1772556995086656300,3.91365625,-0.032337188720703125,0.003764621913433075,-0.006676383316516876
1772556995105429000,3.932428955078125,-0.0263519287109375,-0.001639433205127716,0.002638302743434906
1772556995124202000,3.951201904296875,-0.029944419860839844,-0.000691540539264679,-0.0007923245429992676
1772556995142975000,3.96997509765625,-0.033532142639160156,0.0018835142254829407,0.0016770511865615845
1772556995161748000,3.988748046875,-0.022759437561035156,0.0018437206745147705,0.0004890337586402893
1772556995180521000,4.00752099609375,-0.029941558837890625,0.0028787031769752502,0.00772799551486969
1772556995199294000,4.0262939453125,-0.03473091125488281,0.00038158148527145386,0.0041990503668785095
1772556995218066700,4.045066650390625,-0.02754688262939453,0.0016494691371917725,0.006700947880744934
1772556995236839700,4.063839599609375,-0.02994251251220703,-0.002082645893096924,-0.0006469413638114929
1772556995255612700,4.08261279296875,-0.033535003662109375,-0.002338588237762451,-0.007664218544960022
1772556995274385700,4.1013857421875,-0.033532142639160156,0.008263394236564636,-0.014916755259037018
1772556995293158700,4.12015869140625,-0.02275848388671875,0.007343418896198273,-0.011418744921684265
1772556995311931400,4.138931396484375,-0.031136512756347656,-0.00230543315410614,-0.014835245907306671
1772556995330704400,4.157704345703125,-0.023957252502441406,-0.0012079030275344849,-0.005147829651832581
1772556995349477400,4.176477294921875,-0.023957252502441406,0.002753131091594696,-0.0007107853889465332
1772556995368250400,4.19525048828125,-0.031139373779296875,0.007336333394050598,0.0006384402513504028
1772556995387023000,4.214023193359375,-0.03473091125488281,0.007531479001045227,0.007726199924945831
1772556995405796000,4.232796142578125,-0.03353118896484375,0.001391381025314331,-0.0003881901502609253
1772556995424569000,4.251569091796875,-0.029937744140625,0.004279732704162598,0.00663834810256958
1772556995443342000,4.270342041015625,-0.03711986541748047,0.006533928215503693,-0.0029308125376701355
1772556995462115000,4.289114990234375,-0.034728050231933594,0.003995776176452637,-0.006528042256832123
1772556995480888000,4.30788818359375,-0.027545928955078125,0.0015538185834884644,-0.0031271353363990784
1772556995499660800,4.326660888671875,-0.028743743896484375,0.003748580813407898,-0.005417078733444214
1772556995518433800,4.345433837890625,-0.03113842010498047,0.002778761088848114,-0.0018759220838546753
1772556995537206800,4.364206787109375,-0.035925865173339844,0.0030057281255722046,-0.0008237212896347046
1772556995555979800,4.382979736328125,-0.029938697814941406,0.002963542938232422,0.0006378218531608582
1772556995574752800,4.401752685546875,-0.0371246337890625,0.0016567260026931763,-0.0006676912307739258
1772556995593525500,4.420525390625,-0.037123680114746094,-0.0009226351976394653,-0.0017025694251060486
1772556995612298500,4.439298583984375,-0.02276325225830078,-0.009340696036815643,0.004204988479614258
1772556995631071500,4.458071533203125,-0.02874755859375,0.004249878227710724,0.003847740590572357
1772556995649844500,4.476844482421875,-0.027550697326660156,0.005151934921741486,0.00005345791578292847
1772556995668617200,4.4956171875,-0.03233623504638672,-0.0008373036980628967,-0.007898114621639252
1772556995687390200,4.51439013671875,-0.02754688262939453,0.0027827396988868713,-0.01046030968427658
1772556995706163200,4.5331630859375,-0.03233623504638672,0.007720924913883209,-0.004633806645870209
1772556995724936200,4.551936279296875,-0.034732818603515625,0.00032952427864074707,-0.003269694745540619
1772556995743709200,4.570709228515625,-0.01797199249267578,-0.00042285770177841187,0.00396602600812912
1772556995762482200,4.589482177734375,-0.0371246337890625,-0.0040902867913246155,0.0015546530485153198
1772556995781255000,4.6082548828125,-0.03353404998779297,0.002066195011138916,0.007382996380329132
1772556995800028000,4.62702783203125,-0.032337188720703125,-0.00046466290950775146,0.002537555992603302
1772556995818801000,4.64580078125,-0.028749465942382812,0.0029218345880508423,-0.0036085769534111023
1772556995837574000,4.664573974609375,-0.026353836059570312,0.0005151852965354919,-0.0071850791573524475
1772556995856347000,4.683346923828125,-0.034732818603515625,0.006501711905002594,-0.009766153991222382
1772556995875119600,4.70211962890625,-0.023958206176757812,0.002053990960121155,-0.012194007635116577
1772556995893892600,4.720892578125,-0.039519309997558594,0.00665002316236496,-0.012106746435165405
1772556995912665600,4.73966552734375,-0.04191303253173828,0.002233840525150299,-0.0037190094590187073
1772556995931438600,4.7584384765625,-0.03113842010498047,0.0011390820145606995,-0.000123538076877594
1772556995950211600,4.777211669921875,-0.029944419860839844,0.01184885948896408,0.0009138956665992737
1772556995968984300,4.795984375,-0.032337188720703125,-0.0022175461053848267,0.002167239785194397
1772556995987757300,4.81475732421875,-0.029941558837890625,0.0024917274713516235,-0.0050597116351127625
1772556996006530300,4.8335302734375,-0.03233623504638672,-0.0021606236696243286,-0.0015761852264404297
1772556996025303300,4.85230322265625,-0.03353404998779297,0.002382241189479828,-0.0060837119817733765
1772556996044076300,4.871076171875,-0.037125587463378906,0.0034158900380134583,-0.013431832194328308
1772556996062849000,4.88984912109375,-0.03233623504638672,-0.0009903982281684875,-0.002706080675125122
1772556996081622000,4.9086220703125,-0.026352882385253906,0.008442431688308716,0.003219902515411377
1772556996100395000,4.92739501953125,-0.03233814239501953,-0.0033915340900421143,0.002358958125114441
1772556996119168000,4.94616796875,-0.028745651245117188,-0.0032180622220039368,0.007045567035675049
1772556996137941000,4.96494091796875,-0.035925865173339844,0.002702675759792328,0.0047029778361320496
1772556996156713700,4.983713623046875,-0.03352928161621094,0.0036470890045166016,-0.004899762570858002
1772556996175486700,5.00248681640625,-0.033527374267578125,0.0036843866109848022,-0.01919085532426834
1772556996194259700,5.021259765625,-0.026340484619140625,0.025672152638435364,-0.02797020971775055
1772556996213032700,5.04003271484375,-0.0706319808959961,-0.018475867807865143,-0.007010273635387421
1772556996231805700,5.0588056640625,-0.00000858306884765625,0.02326863259077072,-0.002836182713508606
1772556996250578400,5.077578369140625,-0.03830909729003906,-0.0243888720870018,0.048260390758514404
1772556996269351400,5.096351318359375,-0.03352546691894531,0.007961191236972809,0.04378180950880051
1772556996288124400,5.11512451171875,-0.017963409423828125,0.002296246588230133,0.004686616361141205
1772556996306897400,5.1338974609375,-0.040703773498535156,-0.013341754674911499,0.0024427175521850586
1772556996325670100,5.152670166015625,-0.023197174072265625,0.02124931663274765,-0.009930148720741272
1772556996344443100,5.171443115234375,-0.03965473175048828,0.0016708225011825562,-0.02389530837535858
1772556996363216100,5.190216064453125,-0.027830123901367188,0.003991261124610901,-0.035596974194049835
1772556996381989000,5.208989013671875,-0.02678203582763672,0.015199452638626099,-0.016711853444576263
1772556996400762000,5.22776220703125,-0.03232002258300781,-0.006267949938774109,-0.01753988116979599
1772556996419535000,5.24653515625,-0.036208152770996094,0.009621508419513702,-0.004865795373916626
1772556996438307800,5.265307861328125,-0.03590965270996094,0.002580873668193817,0.008538983762264252
1772556996457080800,5.284080810546875,-0.02154541015625,-0.006852678954601288,0.008687175810337067
1772556996475853800,5.302853759765625,-0.03950309753417969,0.0030073001980781555,0.02148241549730301
1772556996494626800,5.321626708984375,-0.027535438537597656,-0.004511117935180664,0.013238511979579926
1772556996513399800,5.34039990234375,-0.025144577026367188,-0.0008751153945922852,0.008139677345752716
1772556996532172500,5.359172607421875,-0.027538299560546875,-0.0010043084621429443,0.0034154579043388367
1772556996550945500,5.377945556640625,-0.02873516082763672,0.002065993845462799,-0.008320353925228119
1772556996569718500,5.396718505859375,-0.025146484375,0.006554208695888519,-0.01960653066635132
1772556996588491500,5.415491455078125,-0.029933929443359375,0.004887588322162628,-0.036137908697128296
1772556996607264500,5.434264404296875,-0.038313865661621094,0.0064455121755599976,-0.022970370948314667
1772556996626037200,5.453037353515625,-0.03113079071044922,0.009024471044540405,-0.013505369424819946
1772556996644810200,5.471810302734375,-0.03233051300048828,0.0031073689460754395,-0.0002781674265861511
1772556996663583200,5.490583251953125,-0.023950576782226562,-0.0036247819662094116,0.025035664439201355
1772556996682356200,5.509356201171875,-0.032329559326171875,-0.002285383641719818,0.03342566639184952
1772556996701129200,5.528129150390625,-0.031131744384765625,-0.0011919885873794556,0.0212261900305748
1772556996719902000,5.54690185546875,-0.027543067932128906,0.002226792275905609,0.0020275190472602844
1772556996738675000,5.565675048828125,-0.033527374267578125,0.008882135152816772,-0.01612011343240738
1772556996757448000,5.584447998046875,-0.028740882873535156,0.001118391752243042,-0.035999394953250885
1772556996776221000,5.603220947265625,-0.02754688262939453,0.015727505087852478,-0.028172440826892853
1772556996794994000,5.621993896484375,-0.03951549530029297,0.0014029517769813538,-0.024371638894081116
1772556996813766700,5.6407666015625,-0.03831672668457031,0.0039828866720199585,-0.015948079526424408
1772556996832539600,5.65953955078125,-0.025148391723632812,-0.00042366981506347656,0.0058080777525901794
1772556996851312600,5.678312744140625,-0.03353118896484375,-0.004960790276527405,0.018937543034553528
1772556996870085600,5.697085693359375,-0.033530235290527344,-0.002517499029636383,0.03071662038564682
1772556996888858600,5.715858642578125,-0.03472900390625,0.003391064703464508,0.017185747623443604
1772556996907631400,5.73463134765625,-0.03114032745361328,0.0020522400736808777,0.011231057345867157
1772556996926404400,5.753404296875,-0.03592967987060547,0.00132809579372406,-0.004209019243717194
1772556996945177300,5.77217724609375,-0.03832435607910156,0.0033499598503112793,-0.026890166103839874
1772556996963950300,5.790950439453125,-0.027550697326660156,-0.003842473030090332,-0.0301140695810318
1772556996982723300,5.809723388671875,-0.03233909606933594,0.0034729689359664917,-0.020842023193836212
1772556997001496300,5.828496337890625,-0.03234100341796875,0.002288997173309326,-0.00994168221950531
1772556997020269000,5.84726904296875,-0.032341957092285156,0.007279969751834869,-0.0020486265420913696
1772556997039042000,5.8660419921875,-0.0359344482421875,0.002773880958557129,0.011206112802028656
1772556997057815000,5.88481494140625,-0.03713226318359375,-0.005670793354511261,0.015027441084384918
1772556997076588000,5.903588134765625,-0.031147003173828125,0.0015528202056884766,0.01480836421251297
1772556997095361000,5.922361083984375,-0.03115081787109375,0.004909634590148926,0.006319388747215271
1772556997114133800,5.9411337890625,-0.03713417053222656,0.005697682499885559,-0.008108168840408325
1772556997132906800,5.95990673828125,-0.025160789489746094,0.0035543665289878845,-0.012858368456363678
1772556997151679700,5.9786796875,-0.027555465698242188,0.005839399993419647,-0.017599433660507202
1772556997170452700,5.99745263671875,-0.029949188232421875,0.005873590707778931,-0.018803805112838745
1772556997189225700,6.016225830078125,-0.034737586975097656,0.00001934915781021118,-0.004323452711105347
1772556997207998500,6.03499853515625,-0.032341957092285156,-0.0008243769407272339,0.0041176676750183105
1772556997226771500,6.053771484375,-0.027553558349609375,-0.004269324243068695,0.01249425858259201
1772556997245544400,6.07254443359375,-0.032341957092285156,0.0006255581974983215,0.014967396855354309
1772556997264317400,6.0913173828125,-0.02994823455810547,0.0016581565141677856,0.006290942430496216
1772556997283090400,6.11009033203125,-0.0359344482421875,-0.0011008679866790771,-0.006599709391593933
1772556997301863400,6.128863525390625,-0.023965835571289062,0.0069824084639549255,-0.017616242170333862
1772556997320636400,6.147636474609375,-0.044315338134765625,-0.0025440603494644165,-0.016336403787136078
1772556997339409200,6.1664091796875,-0.025160789489746094,0.004560403525829315,-0.013788476586341858
1772556997358182100,6.18518212890625,-0.03234386444091797,-0.002515837550163269,-0.007737383246421814
1772556997376955100,6.203955078125,-0.03473949432373047,-0.00004731118679046631,0.00044983625411987305
1772556997395728100,6.22272802734375,-0.03354072570800781,-0.0023357421159744263,0.001750841736793518
1772556997414501000,6.241501220703125,-0.02635955810546875,-0.006139405071735382,-0.005313970148563385
1772556997433274000,6.260274169921875,-0.03354358673095703,0.004486739635467529,-0.006689339876174927
1772556997452046800,6.279046875,-0.034740447998046875,0.003159165382385254,-0.0006621703505516052
1772556997470819800,6.29781982421875,-0.029953956604003906,-0.003996722400188446,0.0018356963992118835
1772556997489592800,6.3165927734375,-0.02995586395263672,0.005587495863437653,0.0039437636733055115
1772556997508365800,6.33536572265625,-0.03713798522949219,0.0027580484747886658,-0.01002473384141922
1772556997527138800,6.354138916015625,-0.027559280395507812,0.00399983674287796,-0.007695883512496948
1772556997545911800,6.372911865234375,-0.032349586486816406,0.0015275180339813232,-0.0063784196972846985
1772556997564684800,6.391684814453125,-0.031151771545410156,0.0016618818044662476,-0.0017220377922058105
1772556997583457500,6.41045751953125,-0.029953956604003906,-0.007853485643863678,-0.00021205097436904907
1772556997602230500,6.42923046875,-0.028754234313964844,0.0030838996171951294,-0.00028987228870391846
1772556997621003500,6.44800341796875,-0.032344818115234375,-0.00508446991443634,-0.0013132095336914062
1772556997639776500,6.466776611328125,-0.031147003173828125,-0.008968405425548553,0.0022872164845466614
1772556997658549500,6.485549560546875,-0.029949188232421875,-0.0025642886757850647,0.0033424124121665955
1772556997677322500,6.504322509765625,-0.031147003173828125,0.007931366562843323,-0.005217954516410828
1772556997696095500,6.523095458984375,-0.032341957092285156,0.003186739981174469,-0.012453131377696991
1772556997714868200,6.5418681640625,-0.03832721710205078,-0.0041188523173332214,-0.022710531949996948
1772556997733641200,6.56064111328125,-0.02994823455810547,-0.0005388781428337097,-0.008669450879096985
1772556997752414200,6.579414306640625,-0.0359344482421875,0.010295383632183075,-0.0005104243755340576
1772556997771187200,6.598187255859375,-0.03832530975341797,-0.0004755929112434387,0.0012236237525939941
1772556997789960200,6.616960205078125,-0.028749465942382812,0.0045266300439834595,0.007011152803897858
1772556997808733200,6.635733154296875,-0.03114032745361328,-0.004777364432811737,0.00867440551519394
1772556997827506000,6.654505859375,-0.03473186492919922,0.004179827868938446,-0.004973351955413818
1772556997846279000,6.67327880859375,-0.038321495056152344,0.006674923002719879,-0.007281601428985596
1772556997865052000,6.692052001953125,-0.03353309631347656,0.0007864534854888916,-0.012887902557849884
1772556997883825000,6.710824951171875,-0.03353404998779297,0.005486026406288147,-0.009672366082668304
1772556997902598000,6.729597900390625,-0.038326263427734375,0.005456797778606415,-0.00866861641407013
1772556997921371000,6.748370849609375,-0.035930633544921875,0.0031709372997283936,-0.002663351595401764
1772556997940143900,6.767143798828125,-0.02994537353515625,0.008137129247188568,-0.005089528858661652
1772556997958916900,6.785916748046875,-0.029944419860839844,-0.0024374723434448242,-0.0010329410433769226
1772556997977689900,6.80468994140625,-0.034729957580566406,-0.0011796057224273682,0.005964949727058411
1772556997996462600,6.823462646484375,-0.026352882385253906,0.0023931413888931274,0.004817798733711243
1772556998015235600,6.842235595703125,-0.046703338623046875,-0.002706684172153473,0.00013696402311325073
1772556998034008600,6.861008544921875,-0.04191398620605469,0.005924932658672333,-0.0037310048937797546
1772556998052781600,6.879781494140625,-0.029941558837890625,-0.0012400001287460327,-0.009383901953697205
1772556998071554600,6.898554443359375,-0.029938697814941406,0.0000707581639289856,-0.0069974735379219055
1772556998090327600,6.91732763671875,-0.03606891632080078,-0.003342561423778534,-0.001984730362892151
1772556998109100500,6.9361005859375,-0.03412914276123047,0.007373414933681488,-0.0021229088306427
1772556998127873500,6.95487353515625,-0.023355484008789062,-0.004916675388813019,0.00035440921783447266
1772556998146646500,6.973646484375,-0.035327911376953125,-0.0015654340386390686,-0.00445275753736496
1772556998165419500,6.99241943359375,-0.026950836181640625,0.004280760884284973,-0.0007905513048171997
1772556998184192500,7.011192626953125,-0.030539512634277344,0.00428338348865509,-0.005532689392566681
1772556998202965200,7.02996533203125,-0.03532695770263672,0.004223205149173737,-0.009030334651470184
1772556998221738200,7.04873828125,-0.03652191162109375,0.0029763206839561462,-0.0015648305416107178
1772556998240511200,7.06751123046875,-0.03532600402832031,0.007690064609050751,-0.002737663686275482
1772556998259284200,7.0862841796875,-0.034127235412597656,0.0019431784749031067,-0.005157582461833954
1772556998278057200,7.10505712890625,-0.03651618957519531,-0.0013996809720993042,-0.00018305331468582153
1772556998296830200,7.123830322265625,-0.02693939208984375,-0.0013422518968582153,-0.006250068545341492
1772556998315603200,7.142603271484375,-0.03412055969238281,-0.00009094178676605225,0.0021432265639305115
1772556998334376200,7.161376220703125,-0.040106773376464844,-0.002418704330921173,0.004546314477920532
1772556998353149200,7.180149169921875,-0.032921791076660156,0.003635413944721222,0.003471553325653076
1772556998371922200,7.198922119140625,-0.03052520751953125,0.002446413040161133,0.004731953144073486
1772556998390695200,7.217695068359375,-0.037708282470703125,0.0036975517868995667,-0.0024834051728248596
1772556998409468000,7.236468017578125,-0.04130077362060547,0.006139889359474182,-0.0015266239643096924
1772556998428241200,7.2552412109375,-0.035315513610839844,-0.004625864326953888,-0.00380079448223114
1772556998447014000,7.274013916015625,-0.03052806854248047,0.002492658793926239,-0.002629026770591736
1772556998465787000,7.292786865234375,-0.03531646728515625,0.003482721745967865,-0.009766317903995514
1772556998484560000,7.311559814453125,-0.026938438415527344,0.00943996012210846,-0.013573616743087769
1772556998503332900,7.330332763671875,-0.025739669799804688,0.005741514265537262,-0.01935042440891266
1772556998522105900,7.34910595703125,-0.04129981994628906,0.0009206682443618774,-0.02048628032207489
1772556998540878800,7.36787890625,-0.041298866271972656,-0.0011666417121887207,-0.006090015172958374
1772556998559651800,7.38665185546875,-0.037705421447753906,0.0017415285110473633,0.008386977016925812
1772556998578424800,7.4054248046875,-0.04249763488769531,0.00035537034273147583,0.0273628830909729
1772556998597197800,7.42419775390625,-0.020949363708496094,0.006239108741283417,0.007071584463119507
1772556998615970800,7.442970703125,-0.040101051330566406,-0.0032065659761428833,0.013197280466556549
1772556998634743800,7.461743896484375,-0.02693653106689453,0.004693068563938141,-0.010752134025096893
1772556998653516800,7.480516845703125,-0.03291797637939453,0.012784972786903381,-0.025493495166301727
1772556998672289800,7.499289794921875,-0.041296958923339844,-0.007244884967803955,-0.017805159091949463
1772556998691062800,7.518062744140625,-0.019598007202148438,0.014284111559391022,-0.00957510620355606
1772556998709835800,7.536835693359375,-0.044287681579589844,-0.008051611483097076,0.008679836988449097
1772556998728608800,7.55560888671875,-0.02872753143310547,0.0005686506628990173,0.021817155182361603
1772556998747381800,7.5743818359375,-0.04548358917236328,-0.007960230112075806,0.01353900134563446
1772556998766154800,7.59315478515625,-0.021991729736328125,0.010812543332576752,-0.006088808178901672
1772556998784927700,7.611927734375,-0.040993690490722656,0.007275298237800598,-0.01546446979045868
1772556998803700700,7.63070068359375,-0.03874778747558594,-0.0002008378505706787,-0.02222418785095215
1772556998822473500,7.649473388671875,-0.034110069274902344,0.005833491683006287,-0.018885329365730286
1772556998841246700,7.668246826171875,-0.037253379821777344,0.0012294724583625793,-0.003199547529220581
1772556998860019500,7.68701953125,-0.03845405578613281,0.004689507186412811,-0.001189589500427246
1772556998878792400,7.70579248046875,-0.032319068908691406,-0.004423461854457855,0.011074326932430267
1772556998897565700,7.724565673828125,-0.035164833068847656,0.0060114264488220215,0.013257116079330444
1772556998916338400,7.74333837890625,-0.03172111511230469,0.0010495856404304504,0.002642795443534851
1772556998935111700,7.762111572265625,-0.030524253845214844,0.004804402589797974,0.0013480037450790405
1772556998953884400,7.780884521484375,-0.030524253845214844,0.0043261125683784485,-0.01410212367773056
1772556998972657400,7.799657470703125,-0.03531169891357422,-0.001502007246017456,-0.011607080698013306
1772556998991430400,7.818430419921875,-0.036507606506347656,0.01066279411315918,-0.0058895498514175415
1772556999010203400,7.837203369140625,-0.031719207763671875,0.002276219427585602,0.0002070292830467224
1772556999028976400,7.855976318359375,-0.038898468017578125,-0.003251194953918457,0.008734650909900665
1772556999047749400,7.874749267578125,-0.032914161682128906,-0.0016900375485420227,0.014649629592895508
1772556999066522600,7.893522705078125,-0.02932262420654297,0.0003169253468513489,-0.0009490549564361572
1772556999085295400,7.91229541015625,-0.035307884216308594,-0.0009763613343238831,-0.0044504329562187195
1772556999104068400,7.931068359375,-0.040096282958984375,0.00385969877243042,-0.0010019242763519287
1772556999122841300,7.94984130859375,-0.03411102294921875,-0.0024692490696907043,-0.005640819668769836
1772556999141614300,7.9686142578125,-0.028128623962402344,-0.008146382868289948,0.003970123827457428
1772556999160387300,7.98738720703125,-0.036507606506347656,0.0026275813579559326,0.0025416910648345947
1772556999179160300,8.006160400390625,-0.043689727783203125,-0.0011687204241752625,-0.004611536860466003
1772556999197933300,8.024933349609375,-0.03531169891357422,0.0021540969610214233,-0.0106043741106987
1772556999216706300,8.043706298828125,-0.037705421447753906,-0.0019098296761512756,-0.029665090143680573
1772556999235479600,8.0624794921875,-0.041296958923339844,0.010242335498332977,-0.015360444784164429
1772556999254252300,8.081252197265625,-0.02573394775390625,0.003569595515727997,-0.008086152374744415
1772556999273025500,8.100025634765625,-0.03411388397216797,0.0010284557938575745,-0.008147813379764557
1772556999291798500,8.118798583984375,-0.037856101989746094,0.015598930418491364,0.019217096269130707
1772556999310571500,8.137571533203126,-0.037708282470703125,-0.014358803629875183,0.018694274127483368
1772556999329344500,8.156344482421876,-0.03426361083984375,0.007466524839401245,0.021654672920703888
1772556999348117500,8.175117431640626,-0.04623603820800781,-0.0033629462122917175,0.012418314814567566
1772556999366890500,8.193890380859376,-0.02484130859375,0.005836799740791321,-0.002179458737373352
1772556999385663500,8.21266357421875,-0.048630714416503906,-0.001175127923488617,-0.0046942755579948425
1772556999404436500,8.2314365234375,-0.01556396484375,0.017816737294197083,-0.007403343915939331
1772556999423209500,8.25020947265625,-0.04623603820800781,-0.014722771942615509,-0.013992182910442352
1772556999441982500,8.268982421875,-0.030976295471191406,0.01187615841627121,0.006013356149196625
1772556999460755500,8.28775537109375,-0.02962970733642578,0.0011470988392829895,-0.0011109188199043274
1772556999479528400,8.306528564453124,-0.040106773376464844,-0.0075417160987854,-0.0032295584678649902
1772556999498301400,8.325301513671874,-0.024695396423339844,0.008037149906158447,-0.007426925003528595
1772556999517074400,8.344074462890624,-0.04250049591064453,-0.0038476958870887756,-0.006142131984233856
1772556999535847400,8.362847412109375,-0.02813434600830078,-0.003625921905040741,-0.0011857375502586365
1772556999554620400,8.381620361328125,-0.036513328552246094,0.008451171219348907,0.0022117793560028076
1772556999573393400,8.400393310546875,-0.04130077362060547,-0.008345171809196472,0.002436593174934387
1772556999592166400,8.41916650390625,-0.02933025360107422,0.004753723740577698,0.0011051222681999207
1772556999610939400,8.437939453125,-0.04489421844482422,0.001008830964565277,-0.009781703352928162
1772556999629712400,8.45671240234375,-0.03531837463378906,-0.006203360855579376,-0.02041035145521164
1772556999648485400,8.4754853515625,-0.022149085998535156,0.016771726310253143,-0.01234254240989685
1772556999667258400,8.49425830078125,-0.03771209716796875,0.0013629943132400513,-0.005236320197582245
1772556999686031400,8.51303125,-0.034119606018066406,-0.004486054182052612,0.005541659891605377
1772556999704804400,8.531804443359375,-0.029331207275390625,0.0027579665184020996,0.007886767387390137
1772556999723577300,8.550577392578125,-0.03292083740234375,-0.006734028458595276,0.004508987069129944
1772556999742350600,8.5693505859375,-0.0424957275390625,0.00290476530790329,0.0008406266570091248
1772556999761123600,8.58812353515625,-0.037703514099121094,0.00398186594247818,-0.011030159890651703
1772556999779896600,8.606896484375,-0.03291511535644531,0.0014033541083335876,-0.020597338676452637
1772556999798669600,8.625669677734376,-0.03171539306640625,0.006693117320537567,-0.009726665914058685
1772556999817442600,8.644442626953126,-0.036505699157714844,0.004317127168178558,-0.007444359362125397
1772556999836215600,8.663215576171876,-0.032917022705078125,0.004305742681026459,0.003283083438873291
1772556999854988500,8.681988525390626,-0.02932262420654297,0.0009876564145088196,0.0105704665184021
1772556999873761500,8.700761474609376,-0.03530597686767578,0.005682706832885742,0.005842238664627075
1772556999892534500,8.719534423828126,-0.031714439392089844,-0.00375983864068985,0.012956030666828156
1772556999911307500,8.7383076171875,-0.03410625457763672,0.0034832730889320374,0.0035018697381019592
1772556999930080500,8.75708056640625,-0.041289329528808594,-0.0038536489009857178,-0.00958600640296936
1772556999948853500,8.775853515625,-0.04248619079589844,0.009484373033046722,-0.002586871385574341
1772556999967626500,8.79462646484375,-0.03410816192626953,0.0067617446184158325,-0.01221676915884018
1772556999986399500,8.8133994140625,-0.030517578125,-0.002579905092716217,-0.0038536563515663147
1772557000005172500,8.83217236328125,-0.040093421936035156,0.005826584994792938,0.0032832100987434387
1772557000023945700,8.85094580078125,-0.032914161682128906,0.0032833069562911987,0.003244072198867798
1772557000042718700,8.86971875,-0.025734901428222656,0.0008089318871498108,0.007925733923912048
1772557000061491700,8.88849169921875,-0.03531360626220703,0.0030551552772521973,-0.0029221847653388977
1772557000080264700,8.9072646484375,-0.034117698669433594,0.007404394447803497,-0.01142575591802597
1772557000099037700,8.92603759765625,-0.029778480529785156,0.00020025670528411865,-0.012214720249176025
1772557000117810700,8.944810791015625,-0.03471660614013672,0.005191788077354431,-0.0028000101447105408
1772557000136583700,8.963583740234375,-0.02977752685546875,-0.0005990937352180481,0.005787260830402374
1772557000155356700,8.982356689453125,-0.0332183837890625,-0.004256993532180786,0.007210738956928253
1772557000174129700,9.001129638671875,-0.029778480529785156,-0.0007479637861251831,0.0034360140562057495
1772557000192902700,9.019902587890625,-0.038306236267089844,0.004072055220603943,0.002008982002735138
1772557000211676000,9.038676025390625,-0.033516883850097656,0.00001004338264465332,-0.005983039736747742
1772557000230449000,9.057448974609375,-0.03112316131591797,0.005860462784767151,-0.015462398529052734
1772557000249222000,9.076221923828125,-0.03351593017578125,0.002192951738834381,-0.019014038145542145
1772557000267995000,9.094994873046875,-0.03590869903564453,0.008236519992351532,-0.00838211178779602
1772557000286767900,9.113767822265626,-0.03456306457519531,-0.006923764944076538,0.00038570910692214966
1772557000305540900,9.132540771484376,-0.028730392456054688,0.0004896968603134155,0.0012304708361625671
1772557000324313900,9.15131396484375,-0.03680896759033203,0.00028108060359954834,0.0034837722778320312
1772557000343086800,9.1700869140625,-0.029779434204101562,-0.0005866959691047668,0.00213632732629776
1772557000361859800,9.18885986328125,-0.025140762329101562,0.007597237825393677,-0.004015035927295685
1772557000380632800,9.2076328125,-0.02993011474609375,-0.002313368022441864,-0.006001323461532593
1772557000399405800,9.22640576171875,-0.034720420837402344,0.0046616122126579285,-0.0029269829392433167
1772557000418179000,9.245178955078124,-0.03232574462890625,-0.0012471303343772888,-0.0013414174318313599
1772557000436952000,9.2639521484375,-0.027540206909179688,0.003596082329750061,0.00201503187417984
1772557000455725000,9.28272509765625,-0.03592205047607422,0.005593150854110718,-0.000508330762386322
1772557000474498000,9.301498046875,-0.03472328186035156,0.0006894022226333618,-0.0074434950947761536
1772557000493271000,9.32027099609375,-0.03352546691894531,-0.0027653202414512634,-0.009642064571380615
1772557000512044000,9.3390439453125,-0.037116050720214844,0.0018484070897102356,-0.007144026458263397
1772557000530817000,9.357817138671875,-0.03232765197753906,0.005255378782749176,-0.013364851474761963
1772557000549590000,9.376590087890625,-0.033524513244628906,0.009058699011802673,-0.008595257997512817
1772557000568363000,9.395363037109375,-0.03352642059326172,0.0007056444883346558,-0.004837885499000549
1772557000587136300,9.41413623046875,-0.03472328186035156,0.0034628957509994507,0.007993198931217194
1772557000605909200,9.4329091796875,-0.027543067932128906,0.00338851660490036,0.004333861172199249
1772557000624682200,9.45168212890625,-0.03472709655761719,-0.0037196874618530273,0.002215653657913208
1772557000643455200,9.470455322265625,-0.035923004150390625,0.004236377775669098,-0.006430990993976593
1772557000662228200,9.489228271484375,-0.033530235290527344,-0.0019327476620674133,-0.008412420749664307
1772557000681001200,9.508001220703125,-0.031136512756347656,0.006196767091751099,-0.008857548236846924
1772557000699774200,9.526774169921875,-0.04191017150878906,0.002739720046520233,-0.012327365577220917
1772557000718547500,9.54554736328125,-0.03353309631347656,0.006331548094749451,-0.0028555020689964294
1772557000737320400,9.564320556640626,-0.03233814239501953,-0.0006330683827400208,0.004334151744842529
1772557000756093400,9.583093505859376,-0.022762298583984375,-0.0017419606447219849,-0.0004483163356781006
1772557000774866400,9.601866455078126,-0.03952312469482422,-0.004099369049072266,-0.0017772167921066284
1772557000793639400,9.620639404296876,-0.034735679626464844,0.004091531038284302,0.004024192690849304
1772557000812412400,9.639412353515626,-0.037128448486328125,-0.000603117048740387,0.0017428994178771973
1772557000831185400,9.658185302734376,-0.043114662170410156,-0.0022330954670906067,-0.0030499249696731567
1772557000849958700,9.676958740234374,-0.03593254089355469,0.001384727656841278,-0.003988198935985565
1772557000868731600,9.695731689453124,-0.038326263427734375,0.0048313140869140625,-0.0018020272254943848
1772557000887504600,9.714504638671874,-0.04072093963623047,0.010918676853179932,0.001454368233680725
1772557000906277600,9.733277587890624,-0.035935401916503906,-0.00456596165895462,0.0020293518900871277
1772557000925050600,9.752050537109374,-0.035935401916503906,0.00019987672567367554,0.0006566420197486877
1772557000943823600,9.77082373046875,-0.03234386444091797,0.0010675042867660522,-0.0053414031863212585
1772557000962596600,9.7895966796875,-0.03354167938232422,0.005017891526222229,0.0029123350977897644
1772557000981369900,9.808369873046875,-0.0407257080078125,0.0024408623576164246,-0.0008148252964019775
1772557001000142800,9.827142822265625,-0.028757095336914062,-0.005057439208030701,-0.00298328697681427
1772557001018915800,9.845915771484375,-0.03354167938232422,0.0012660399079322815,-0.0007500723004341125
1772557001037688800,9.864688720703125,-0.038330078125,0.00009688735008239746,0.0016642287373542786
1772557001056461800,9.8834619140625,-0.028753280639648438,0.0011763274669647217,-0.007824935019016266
1772557001075234800,9.90223486328125,-0.03473949432373047,0.006034776568412781,-0.007155291736125946
1772557001094014000,9.921013916015625,-0.038330078125,-0.003702595829963684,-0.00785362720489502
1772557001112787000,9.939786865234375,-0.03714561462402344,0.0013315901160240173,-0.003310658037662506
1772557001131560200,9.958560302734375,-0.025183677673339844,0.00046607106924057007,-0.0031722187995910645
1772557001150333200,9.977333251953125,-0.022785186767578125,-0.0013593882322311401,0.005337975919246674
1772557001169106200,9.996106201171875,-0.035938262939453125,-0.0026222988963127136,0.005603477358818054
1772557001187879200,10.014879150390625,-0.03833198547363281,-0.004830747842788696,0.0006762370467185974
