time,seconds_elapsed,z,y,x
1772556991316983000,0.143983154296875,-0.00015271181473508477,0.00015271181473508477,0.0006108472589403391
1772556991335756000,0.162756103515625,0.0004581354442052543,0.0007635590736754239,0
1772556991354529000,0.181529052734375,-0.00015271181473508477,-0.0004581354442052543,-0.0006108472589403391
1772556991373302000,0.200302001953125,0.0009162708884105086,0.001374406274408102,-0.0006108472589403391
1772556991392075000,0.219074951171875,-0.00015271181473508477,-0.0016798300202935934,-0.0004581354442052543
1772556991410847700,0.23784765625,-0.0007635590736754239,-0.0010689827613532543,-0.0004581354442052543
1772556991429620700,0.256620849609375,0.0004581354442052543,0.0007635590736754239,0.0006108472589403391
1772556991448393700,0.275393798828125,0.0010689827613532543,0.00015271181473508477,-0.0006108472589403391
1772556991467166700,0.294166748046875,0.0004581354442052543,0.00015271181473508477,0.0007635590736754239
1772556991485939700,0.312939697265625,0.0004581354442052543,0.00015271181473508477,0
1772556991504712700,0.331712646484375,0.0010689827613532543,0.0007635590736754239,-0.0006108472589403391
1772556991523485700,0.350485595703125,-0.00015271181473508477,0.001374406274408102,-0.0012216945178806782
1772556991542258700,0.3692587890625,0.0004581354442052543,0.00015271181473508477,0.001374406274408102
1772556991561031700,0.38803173828125,0.0010689827613532543,-0.0004581354442052543,0.0006108472589403391
1772556991579804400,0.406804443359375,-0.00015271181473508477,0.0007635590736754239,-0.0006108472589403391
1772556991598577400,0.425577392578125,-0.00015271181473508477,0.00015271181473508477,0
1772556991617350400,0.444350341796875,0.0016798300202935934,0.00015271181473508477,0.0012216945178806782
1772556991636123400,0.463123291015625,-0.00015271181473508477,-0.0004581354442052543,0.0007635590736754239
1772556991654896400,0.481896484375,0.0004581354442052543,-0.0004581354442052543,0
1772556991673669400,0.50066943359375,-0.00015271181473508477,0.0007635590736754239,0
1772556991692442000,0.519442138671875,0.0004581354442052543,-0.0004581354442052543,0
1772556991711215000,0.538215087890625,-0.00030542362947016954,0.00015271181473508477,0
1772556991729988000,0.556988037109375,-0.00030542362947016954,-0.0004581354442052543,0
1772556991748761000,0.575760986328125,0.00030542362947016954,-0.0010689827613532543,0.00015271181473508477
1772556991767534000,0.5945341796875,0.0009162708884105086,0.00015271181473508477,0
1772556991786307000,0.61330712890625,-0.00030542362947016954,0.00015271181473508477,0.0006108472589403391
1772556991805079800,0.632079833984375,-0.00030542362947016954,0.00015271181473508477,0.0007635590736754239
1772556991823852800,0.650852783203125,0.0009162708884105086,-0.0004581354442052543,0
1772556991842625800,0.669625732421875,-0.00030542362947016954,0.001374406274408102,0
1772556991861398800,0.688398681640625,-0.00030542362947016954,0.00015271181473508477,0.001374406274408102
1772556991880171800,0.707171875,-0.00030542362947016954,0.0007635590736754239,0.0006108472589403391
1772556991898944500,0.725944580078125,0.0004581354442052543,0.00015271181473508477,-0.0012216945178806782
1772556991917717500,0.744717529296875,-0.00015271181473508477,-0.0004581354442052543,0.0007635590736754239
1772556991936490500,0.763490478515625,-0.00015271181473508477,0.00015271181473508477,-0.0012216945178806782
1772556991955263500,0.782263427734375,0.0010689827613532543,0.00015271181473508477,0
1772556991974036500,0.801036376953125,-0.00015271181473508477,0.00015271181473508477,0
1772556991992809500,0.8198095703125,-0.0007635590736754239,0.0007635590736754239,0
1772556992011582200,0.838582275390625,-0.00015271181473508477,0.00015271181473508477,-0.0012216945178806782
1772556992030355200,0.857355224609375,0.0004581354442052543,-0.0004581354442052543,0
1772556992049128200,0.876128173828125,0.0004581354442052543,0.0007635590736754239,-0.0006108472589403391
1772556992067901200,0.894901123046875,0.0004581354442052543,-0.0004581354442052543,0.0007635590736754239
1772556992086674200,0.913674072265625,0.0004581354442052543,-0.0010689827613532543,0
1772556992105447000,0.932447021484375,-0.00015271181473508477,-0.0010689827613532543,0.0007635590736754239
1772556992124220000,0.951219970703125,0.0004581354442052543,0.00015271181473508477,-0.0006108472589403391
1772556992142993000,0.969992919921875,-0.00015271181473508477,-0.0004581354442052543,0.0006108472589403391
1772556992161766000,0.988765869140625,-0.00015271181473508477,-0.0004581354442052543,0.00015271181473508477
1772556992180538600,1.00753857421875,-0.00015271181473508477,0.0007635590736754239,0
1772556992199311600,1.0263115234375,-0.0007635590736754239,-0.0004581354442052543,0.00015271181473508477
1772556992218084600,1.045084716796875,-0.0007635590736754239,0.00015271181473508477,0.0007635590736754239
1772556992236857600,1.063857666015625,0.0004581354442052543,0.001374406274408102,-0.0012216945178806782
1772556992255630600,1.082630615234375,-0.00015271181473508477,0.0007635590736754239,-0.0006108472589403391
1772556992274403300,1.1014033203125,0.0004581354442052543,-0.0004581354442052543,0
1772556992293176300,1.12017626953125,0.0004581354442052543,0.00015271181473508477,0.0007635590736754239
1772556992311949300,1.13894921875,-0.00015271181473508477,-0.0004581354442052543,0.0007635590736754239
1772556992330722300,1.157722412109375,0.0004581354442052543,-0.0004581354442052543,0.00015271181473508477
1772556992349495000,1.1764951171875,-0.0007635590736754239,0.00015271181473508477,0.001374406274408102
1772556992368268000,1.19526806640625,0.0004581354442052543,-0.0004581354442052543,-0.0006108472589403391
1772556992387041000,1.214041015625,0.0010689827613532543,0.0007635590736754239,-0.0006108472589403391
1772556992405814000,1.23281396484375,0.0004581354442052543,-0.0004581354442052543,0.001374406274408102
1772556992424587000,1.2515869140625,0.0004581354442052543,-0.0004581354442052543,0.001374406274408102
1772556992443359700,1.27035986328125,0.0004581354442052543,0.001374406274408102,-0.0006108472589403391
1772556992462132700,1.2891328125,0.0004581354442052543,0.0007635590736754239,0.0006108472589403391
1772556992480905700,1.30790576171875,-0.00015271181473508477,-0.0010689827613532543,0.00015271181473508477
1772556992499678700,1.3266787109375,0.0004581354442052543,0.00015271181473508477,-0.0006108472589403391
1772556992518451500,1.345451416015625,0.0004581354442052543,-0.0004581354442052543,0.0007635590736754239
1772556992537224400,1.364224365234375,-0.00015271181473508477,-0.0010689827613532543,0.0007635590736754239
1772556992555997400,1.38299755859375,-0.00015271181473508477,0.00015271181473508477,-0.0006108472589403391
1772556992574770400,1.4017705078125,-0.00015271181473508477,-0.0004581354442052543,-0.0006108472589403391
1772556992593543200,1.420543212890625,0.0004581354442052543,0.00015271181473508477,0.0007635590736754239
1772556992612316200,1.439316162109375,-0.00015271181473508477,-0.0004581354442052543,-0.0012216945178806782
1772556992631089200,1.458089111328125,-0.00015271181473508477,0.001374406274408102,0
1772556992649862100,1.476862060546875,-0.00015271181473508477,0.0007635590736754239,0.0006108472589403391
1772556992668635100,1.49563525390625,-0.00015271181473508477,0.00015271181473508477,0
1772556992687407900,1.514407958984375,-0.00015271181473508477,0.00015271181473508477,-0.0006108472589403391
1772556992706180900,1.533180908203125,-0.00015271181473508477,-0.0004581354442052543,-0.0012216945178806782
1772556992724953900,1.551953857421875,-0.00015271181473508477,-0.0010689827613532543,-0.0006108472589403391
1772556992743726800,1.570726806640625,-0.0007635590736754239,0.0007635590736754239,0.0012216945178806782
1772556992762499600,1.58949951171875,0.0004581354442052543,0.00015271181473508477,0.0007635590736754239
1772556992781272600,1.6082724609375,-0.00015271181473508477,0.00015271181473508477,-0.0006108472589403391
1772556992800045600,1.627045654296875,0.0004581354442052543,-0.0004581354442052543,0.0007635590736754239
1772556992818818600,1.645818603515625,0.0010689827613532543,0.001374406274408102,0.0006108472589403391
1772556992837591300,1.66459130859375,-0.00015271181473508477,-0.0004581354442052543,-0.0006108472589403391
1772556992856364300,1.6833642578125,0.0004581354442052543,0.00015271181473508477,0
1772556992875137300,1.70213720703125,0.0010689827613532543,0.0007635590736754239,-0.0012216945178806782
1772556992893910300,1.72091015625,-0.00015271181473508477,-0.0004581354442052543,0.0007635590736754239
1772556992912683000,1.73968310546875,-0.00015271181473508477,-0.0004581354442052543,0.00015271181473508477
1772556992931456000,1.7584560546875,-0.00015271181473508477,-0.0004581354442052543,-0.0012216945178806782
1772556992950229000,1.77722900390625,-0.00015271181473508477,0.001374406274408102,0
1772556992969002000,1.796001953125,-0.00030542362947016954,0.00015271181473508477,0
1772556992987775000,1.81477490234375,-0.0009162708884105086,0.00015271181473508477,0.0006108472589403391
1772556993006547700,1.833547607421875,0.0009162708884105086,-0.0010689827613532543,0
1772556993025320700,1.85232080078125,-0.00030542362947016954,-0.0004581354442052543,-0.0006108472589403391
1772556993044093700,1.87109375,-0.00030542362947016954,0.0007635590736754239,0
1772556993062866700,1.88986669921875,-0.00030542362947016954,-0.0010689827613532543,0.0006108472589403391
1772556993081639400,1.908639404296875,0.00030542362947016954,0.00015271181473508477,0
1772556993100412400,1.927412353515625,-0.00030542362947016954,0.001374406274408102,0.0004581354442052543
1772556993119185400,1.946185302734375,-0.0015271181473508477,0.00030542362947016954,0.0018325417768210173
1772556993137958400,1.96495849609375,0.00030542362947016954,0.00015271181473508477,0
1772556993156731100,1.983731201171875,-0.00030542362947016954,0.0007635590736754239,0.0006108472589403391
1772556993175504100,2.002504150390625,-0.00030542362947016954,0.00015271181473508477,0.0006108472589403391
1772556993194277000,2.021277099609375,0.0009162708884105086,-0.0004581354442052543,0
1772556993213050000,2.040050048828125,0.0009162708884105086,-0.0004581354442052543,0
1772556993231822800,2.05882275390625,0.00030542362947016954,-0.0004581354442052543,-0.001374406274408102
1772556993250595800,2.077595947265625,-0.00030542362947016954,0.00015271181473508477,0.0006108472589403391
1772556993269368800,2.096368896484375,0.00030542362947016954,0.00015271181473508477,0.0006108472589403391
1772556993288141800,2.115141845703125,0.00030542362947016954,0.00015271181473508477,0
1772556993306914600,2.13391455078125,-0.00030542362947016954,0.00015271181473508477,0
1772556993325687600,2.1526875,-0.00030542362947016954,0.0007635590736754239,-0.00015271181473508477
1772556993344460500,2.17146044921875,-0.00030542362947016954,0.00015271181473508477,0.0006108472589403391
1772556993363233500,2.190233642578125,-0.00030542362947016954,0.00015271181473508477,0.0006108472589403391
1772556993382006500,2.209006591796875,0.00030542362947016954,0.00015271181473508477,0.0006108472589403391
1772556993400779300,2.227779296875,-0.00030542362947016954,0.0007635590736754239,-0.001374406274408102
1772556993419552300,2.24655224609375,-0.00030542362947016954,0.00015271181473508477,0
1772556993438325200,2.2653251953125,0.00030542362947016954,0.00015271181473508477,-0.0007635590736754239
1772556993457098200,2.28409814453125,0.0009162708884105086,0.00015271181473508477,0
1772556993475871200,2.302871337890625,-0.00030542362947016954,-0.0004581354442052543,0.0006108472589403391
1772556993494644000,2.32164404296875,0.00030542362947016954,-0.0004581354442052543,0
1772556993513417000,2.3404169921875,-0.0009162708884105086,-0.0004581354442052543,0.0006108472589403391
1772556993532190000,2.35918994140625,-0.00030542362947016954,-0.0004581354442052543,0.0006108472589403391
1772556993550963000,2.377962890625,0.0009162708884105086,0.00015271181473508477,-0.0007635590736754239
1772556993569735700,2.396735595703125,0.00030542362947016954,0.0007635590736754239,-0.00015271181473508477
1772556993588508700,2.4155087890625,0.0009162708884105086,-0.0004581354442052543,0.0006108472589403391
1772556993607281700,2.43428173828125,-0.00030542362947016954,0.0007635590736754239,-0.00015271181473508477
1772556993626054700,2.4530546875,-0.00030542362947016954,0.00015271181473508477,-0.0006108472589403391
1772556993644827600,2.47182763671875,-0.00030542362947016954,-0.0004581354442052543,0.0006108472589403391
1772556993663600400,2.490600341796875,-0.00030542362947016954,0.0007635590736754239,0.0012216945178806782
1772556993682373400,2.509373291015625,0.00030542362947016954,0.00015271181473508477,0.0006108472589403391
1772556993701146400,2.528146484375,0.0009162708884105086,0.00015271181473508477,-0.0007635590736754239
1772556993719919400,2.54691943359375,0.00030542362947016954,0.00015271181473508477,0
1772556993738692400,2.5656923828125,-0.00030542362947016954,0.00015271181473508477,0
1772556993757465000,2.584465087890625,-0.00030542362947016954,0.00015271181473508477,-0.0006108472589403391
1772556993776238000,2.603238037109375,-0.00030542362947016954,0.0007635590736754239,-0.0007635590736754239
1772556993795011000,2.622010986328125,0.0009162708884105086,0.00015271181473508477,0.0006108472589403391
1772556993813784000,2.6407841796875,-0.00030542362947016954,0.001374406274408102,0.0004581354442052543
1772556993832556800,2.659556884765625,-0.00030542362947016954,-0.0010689827613532543,-0.0006108472589403391
1772556993851329800,2.678329833984375,-0.00030542362947016954,0.0007635590736754239,0.0012216945178806782
1772556993870102800,2.697102783203125,0.00030542362947016954,0.00015271181473508477,-0.001374406274408102
1772556993888875800,2.715875732421875,0.00030542362947016954,-0.0004581354442052543,0.0006108472589403391
1772556993907648800,2.734648681640625,-0.00030542362947016954,-0.0010689827613532543,0
1772556993926421500,2.75342138671875,-0.00030542362947016954,0.00015271181473508477,0.0006108472589403391
1772556993945194500,2.772194580078125,-0.00030542362947016954,0.00015271181473508477,-0.0006108472589403391
1772556993963967500,2.790967529296875,0.00030542362947016954,0.00015271181473508477,0
1772556993982740500,2.809740478515625,0.0009162708884105086,0.00015271181473508477,0.0006108472589403391
1772556994001513200,2.82851318359375,-0.0015271181473508477,0.00015271181473508477,0.0012216945178806782
1772556994020286200,2.8472861328125,-0.00030542362947016954,-0.0004581354442052543,-0.0006108472589403391
1772556994039059200,2.86605908203125,-0.00030542362947016954,0.00015271181473508477,0
1772556994057832200,2.884832275390625,-0.00030542362947016954,0.00015271181473508477,0
1772556994076605200,2.903605224609375,-0.00030542362947016954,0.00015271181473508477,0
1772556994095378200,2.922378173828125,-0.00030542362947016954,0.0007635590736754239,0
1772556994114151000,2.94115087890625,-0.00030542362947016954,0.00015271181473508477,0
1772556994132924000,2.959923828125,-0.00030542362947016954,0.00015271181473508477,0.0006108472589403391
1772556994151697000,2.97869677734375,-0.0009162708884105086,0.00015271181473508477,-0.001374406274408102
1772556994170470000,2.997469970703125,-0.00030542362947016954,0.0007635590736754239,-0.0007635590736754239
1772556994189243000,3.016242919921875,-0.00030542362947016954,0.00015271181473508477,0
1772556994208015600,3.035015625,0.0009162708884105086,-0.0004581354442052543,0
1772556994226788600,3.05378857421875,-0.00030542362947016954,0.0007635590736754239,-0.001374406274408102
1772556994245561600,3.0725615234375,-0.00030542362947016954,0.001374406274408102,0.0004581354442052543
1772556994264334600,3.09133447265625,-0.00030542362947016954,-0.0004581354442052543,0
1772556994283107300,3.110107421875,-0.0015271181473508477,-0.0004581354442052543,0
1772556994301880300,3.12888037109375,-0.00030542362947016954,0.0007635590736754239,0.0006108472589403391
1772556994320653300,3.1476533203125,0.00030542362947016954,0.0007635590736754239,0.0006108472589403391
1772556994339426300,3.16642626953125,-0.00030542362947016954,-0.0004581354442052543,0
1772556994358199300,3.18519921875,0.00030542362947016954,0.00015271181473508477,0
1772556994376972000,3.203971923828125,0.00030542362947016954,0.00015271181473508477,-0.0007635590736754239
1772556994395745000,3.2227451171875,0.00030542362947016954,-0.0004581354442052543,-0.0006108472589403391
1772556994414518000,3.24151806640625,0.00030542362947016954,-0.0010689827613532543,0
1772556994433291000,3.260291015625,-0.00030542362947016954,0.0007635590736754239,-0.001374406274408102
1772556994452064000,3.27906396484375,0.00030542362947016954,0.00015271181473508477,0.0006108472589403391
1772556994470837000,3.2978369140625,-0.00030542362947016954,0.001374406274408102,-0.00015271181473508477
1772556994489609700,3.316609619140625,0.0009162708884105086,-0.0004581354442052543,-0.0006108472589403391
1772556994508382700,3.3353828125,0.00030542362947016954,0.00015271181473508477,-0.0007635590736754239
1772556994527155700,3.35415576171875,0.00030542362947016954,0.0007635590736754239,-0.00015271181473508477
1772556994545928700,3.3729287109375,-0.00030542362947016954,0.00015271181473508477,0
1772556994564701400,3.391701416015625,-0.00030542362947016954,0.0007635590736754239,0.0006108472589403391
1772556994583474400,3.410474365234375,0.00030542362947016954,0.0007635590736754239,0.0006108472589403391
1772556994602247400,3.429247314453125,0.00030542362947016954,-0.0004581354442052543,0
1772556994621020400,3.4480205078125,-0.00030542362947016954,0.00015271181473508477,-0.0007635590736754239
1772556994639793400,3.46679345703125,-0.00030542362947016954,-0.0004581354442052543,-0.0006108472589403391
1772556994658566100,3.485566162109375,-0.00030542362947016954,0.00015271181473508477,0
1772556994677339100,3.504339111328125,0.0015271181473508477,0.00015271181473508477,0.0012216945178806782
1772556994696112000,3.523112060546875,-0.00030542362947016954,0.001374406274408102,0.0006108472589403391
1772556994714885000,3.541885009765625,0.00030542362947016954,-0.0012216945178806782,-0.0006108472589403391
1772556994733658000,3.560658203125,-0.00030542362947016954,-0.0006108472589403391,-0.001374406274408102
1772556994752430800,3.579430908203125,-0.00030542362947016954,0.0006108472589403391,-0.0007635590736754239
1772556994771203800,3.598203857421875,0.00030542362947016954,0,-0.00015271181473508477
1772556994789976800,3.616976806640625,0.00030542362947016954,0.0006108472589403391,0.0004581354442052543
1772556994808749800,3.635749755859375,0.0009162708884105086,0,0.0006108472589403391
1772556994827522800,3.654522705078125,0.0009162708884105086,0,0.0006108472589403391
1772556994846295600,3.673295654296875,0.00030542362947016954,-0.0012216945178806782,0
1772556994865068500,3.692068603515625,-0.0009162708884105086,-0.0006108472589403391,-0.0007635590736754239
1772556994883841500,3.710841552734375,-0.00030542362947016954,0,-0.0007635590736754239
1772556994902614500,3.729614501953125,0.00030542362947016954,0.0012216945178806782,-0.0007635590736754239
1772556994921387500,3.748387451171875,-0.00030542362947016954,0,0.0006108472589403391
1772556994940160300,3.76716015625,0.0009162708884105086,-0.0006108472589403391,0.0006108472589403391
1772556994958933200,3.785933349609375,0.00030542362947016954,0,-0.00015271181473508477
1772556994977706200,3.804706298828125,0.00030542362947016954,0,-0.00015271181473508477
1772556994996479200,3.823479248046875,0.00030542362947016954,-0.0010689827613532543,0.0018325417768210173
1772556995015252200,3.842252197265625,-0.00030542362947016954,0.0012216945178806782,-0.00015271181473508477
1772556995034025000,3.86102490234375,-0.00030542362947016954,0,0.0006108472589403391
1772556995052798000,3.8797978515625,-0.00030542362947016954,0.0006108472589403391,-0.00015271181473508477
1772556995071571000,3.898571044921875,-0.00030542362947016954,0.0006108472589403391,0.0004581354442052543
1772556995090344000,3.917343994140625,-0.00030542362947016954,0,-0.00015271181473508477
1772556995109117000,3.936116943359375,0.00030542362947016954,0,-0.0007635590736754239
1772556995127889700,3.9548896484375,-0.00030542362947016954,0.0006108472589403391,-0.00015271181473508477
1772556995146662700,3.97366259765625,-0.0009162708884105086,0.0012216945178806782,-0.00015271181473508477
1772556995165435600,3.992435546875,-0.00030542362947016954,0.0006108472589403391,-0.0007635590736754239
1772556995184208600,4.011208740234375,-0.00030542362947016954,0.00015271181473508477,0.0012216945178806782
1772556995202981600,4.029981689453125,0.0009162708884105086,0.00015271181473508477,0.0012216945178806782
1772556995221754400,4.04875439453125,0.0009162708884105086,0.0006108472589403391,-0.0007635590736754239
1772556995240527400,4.06752734375,-0.0009162708884105086,-0.0012216945178806782,0
1772556995259300400,4.08630029296875,0.00030542362947016954,0,0.0006108472589403391
1772556995278073300,4.1050732421875,-0.00030542362947016954,-0.0006108472589403391,-0.00015271181473508477
1772556995296846300,4.123846435546875,0.00030542362947016954,0,-0.001374406274408102
1772556995315619000,4.142619140625,0.00030542362947016954,0.0006108472589403391,-0.0007635590736754239
1772556995334392000,4.16139208984375,-0.0009162708884105086,-0.0004581354442052543,0.0012216945178806782
1772556995353165000,4.1801650390625,0.00030542362947016954,-0.0006108472589403391,-0.0007635590736754239
1772556995371938000,4.19893798828125,-0.00030542362947016954,0,0.0006108472589403391
1772556995390711000,4.2177109375,-0.00030542362947016954,0,-0.00015271181473508477
1772556995409483800,4.23648388671875,-0.00030542362947016954,0.0006108472589403391,-0.00015271181473508477
1772556995428256800,4.2552568359375,-0.00030542362947016954,0,-0.0007635590736754239
1772556995447029800,4.27402978515625,-0.0009162708884105086,0,-0.0007635590736754239
1772556995465802800,4.292802734375,-0.00030542362947016954,-0.0018325417768210173,-0.0007635590736754239
1772556995484575700,4.31157568359375,-0.00030542362947016954,0.00015271181473508477,0.0012216945178806782
1772556995503348500,4.330348388671875,-0.00030542362947016954,-0.0006108472589403391,-0.00015271181473508477
1772556995522121500,4.34912158203125,0.00030542362947016954,-0.0006108472589403391,-0.00015271181473508477
1772556995540894500,4.36789453125,-0.00030542362947016954,0.0006108472589403391,-0.00015271181473508477
1772556995559667500,4.38666748046875,0.00030542362947016954,0.0006108472589403391,0.0004581354442052543
1772556995578440400,4.4054404296875,-0.00030542362947016954,-0.0006108472589403391,0.0006108472589403391
1772556995597213400,4.42421337890625,0.00030542362947016954,0,-0.00015271181473508477
1772556995615986200,4.442986083984375,-0.00030542362947016954,-0.0012216945178806782,0
1772556995634759200,4.46175927734375,0.00030542362947016954,0.0006108472589403391,-0.001374406274408102
1772556995653532200,4.4805322265625,-0.00030542362947016954,0,0.0006108472589403391
1772556995672305200,4.49930517578125,-0.00030542362947016954,0.0006108472589403391,-0.0007635590736754239
1772556995691078100,4.518078125,-0.00030542362947016954,0.0012216945178806782,0.0004581354442052543
1772556995709851000,4.536850830078125,-0.00030542362947016954,0,-0.00015271181473508477
1772556995728623900,4.555623779296875,0.0009162708884105086,0.00015271181473508477,0.0016798300202935934
1772556995747396900,4.57439697265625,0.00030542362947016954,0.0006108472589403391,-0.0007635590736754239
1772556995766169900,4.593169921875,-0.00030542362947016954,-0.0006108472589403391,-0.0007635590736754239
1772556995784942600,4.611942626953125,0.0009162708884105086,0.0006108472589403391,-0.00015271181473508477
1772556995803715600,4.630715576171875,-0.00030542362947016954,-0.0006108472589403391,0
1772556995822488600,4.649488525390625,-0.00030542362947016954,-0.0018325417768210173,0
1772556995841261600,4.668261474609375,0.00030542362947016954,0,-0.001374406274408102
1772556995860034600,4.68703466796875,-0.00030542362947016954,0,0.0006108472589403391
1772556995878807300,4.705807373046875,-0.00030542362947016954,-0.0006108472589403391,-0.0007635590736754239
1772556995897580300,4.724580322265625,0.0009162708884105086,0.0006108472589403391,-0.00015271181473508477
1772556995916353300,4.743353271484375,-0.00030542362947016954,0,-0.0007635590736754239
1772556995935126300,4.762126220703125,0.00030542362947016954,0,-0.00015271181473508477
1772556995953899300,4.780899169921875,0.00030542362947016954,-0.0012216945178806782,-0.0007635590736754239
1772556995972672300,4.79967236328125,-0.00030542362947016954,0.0012216945178806782,-0.00015271181473508477
1772556995991445000,4.818445068359375,-0.00030542362947016954,0,-0.00015271181473508477
1772556996010218000,4.837218017578125,-0.00030542362947016954,-0.0006108472589403391,-0.0007635590736754239
1772556996028991000,4.855990966796875,-0.0009162708884105086,0.00015271181473508477,0.0012216945178806782
1772556996047764000,4.874763916015625,0.0009162708884105086,-0.0010689827613532543,0.0006108472589403391
1772556996066536700,4.89353662109375,-0.00030542362947016954,-0.0006108472589403391,-0.00015271181473508477
1772556996085309700,4.912309814453125,-0.0009162708884105086,0,-0.00015271181473508477
1772556996104082700,4.931082763671875,-0.00030542362947016954,0,0.0006108472589403391
1772556996122855700,4.949855712890625,-0.0009162708884105086,0.0012216945178806782,-0.0007635590736754239
1772556996141628700,4.968628662109375,-0.00030542362947016954,0.0006108472589403391,-0.00015271181473508477
1772556996160401400,4.9874013671875,-0.00030542362947016954,0,-0.001374406274408102
1772556996179174400,5.00617431640625,0.0007635590736754239,-0.0006108472589403391,-0.001985253533348441
1772556996197947400,5.024947509765625,-0.0004581354442052543,0.0006108472589403391,-0.00259610079228878
1772556996216720400,5.043720458984375,0.00030542362947016954,-0.0004581354442052543,0.0030542362947016954
1772556996235493400,5.062493408203125,-0.00030542362947016954,0.0012216945178806782,-0.00015271181473508477
1772556996254266400,5.081266357421875,0.00015271181473508477,0,-0.00259610079228878
1772556996273039000,5.1000390625,-0.0009162708884105086,-0.0010689827613532543,0.0012216945178806782
1772556996291812000,5.11881201171875,0.00015271181473508477,0.0006108472589403391,-0.00015271181473508477
1772556996310585000,5.137585205078125,0.0007635590736754239,0.0006108472589403391,-0.00015271181473508477
1772556996329358000,5.156358154296875,0.00015271181473508477,0.0006108472589403391,-0.00015271181473508477
1772556996348130800,5.175130859375,-0.0004581354442052543,0.0006108472589403391,-0.00015271181473508477
1772556996366903800,5.19390380859375,0.00015271181473508477,0.0012216945178806782,-0.00015271181473508477
1772556996385676800,5.2126767578125,-0.0004581354442052543,0.0006108472589403391,-0.00015271181473508477
1772556996404449800,5.23144970703125,-0.0004581354442052543,-0.0006108472589403391,0
1772556996423222800,5.250222900390625,0.00015271181473508477,0,-0.0007635590736754239
1772556996441995500,5.26899560546875,0.00015271181473508477,0.0006108472589403391,0.0004581354442052543
1772556996460768500,5.2877685546875,-0.0004581354442052543,-0.0006108472589403391,0.00015271181473508477
1772556996479541500,5.30654150390625,-0.0010689827613532543,-0.0006108472589403391,-0.0006108472589403391
1772556996498314500,5.325314453125,-0.00030542362947016954,-0.0006108472589403391,0.0007635590736754239
1772556996517087500,5.34408740234375,-0.0004581354442052543,-0.0006108472589403391,-0.0006108472589403391
1772556996535860500,5.362860595703125,-0.0004581354442052543,0,0.0007635590736754239
1772556996554633200,5.38163330078125,0.00015271181473508477,0.0006108472589403391,0
1772556996573406200,5.40040625,-0.00030542362947016954,-0.0006108472589403391,0.0007635590736754239
1772556996592179200,5.41917919921875,-0.0004581354442052543,0,0
1772556996610952200,5.4379521484375,0.00030542362947016954,-0.0006108472589403391,0.0007635590736754239
1772556996629725000,5.456724853515625,-0.0004581354442052543,0,-0.0006108472589403391
1772556996648498000,5.475497802734375,0.00015271181473508477,-0.0010689827613532543,0.0007635590736754239
1772556996667271000,5.49427099609375,-0.0004581354442052543,0,-0.0006108472589403391
1772556996686044000,5.5130439453125,-0.0004581354442052543,0.0006108472589403391,0
1772556996704817000,5.53181689453125,-0.00030542362947016954,-0.0012216945178806782,0.00015271181473508477
1772556996723589600,5.550589599609375,-0.00030542362947016954,0,0.0007635590736754239
1772556996742362600,5.569362548828125,0.00030542362947016954,0.0007635590736754239,0.0012216945178806782
1772556996761135600,5.588135498046875,-0.00030542362947016954,-0.0012216945178806782,0.0007635590736754239
1772556996779908600,5.60690869140625,0.00030542362947016954,-0.0012216945178806782,-0.0004581354442052543
1772556996798681600,5.625681640625,0.0009162708884105086,0,0
1772556996817454600,5.64445458984375,0.00030542362947016954,0,-0.0012216945178806782
1772556996836227300,5.663227294921875,-0.00030542362947016954,0.0012216945178806782,0.0006108472589403391
1772556996855000300,5.682000244140625,0.00030542362947016954,-0.0012216945178806782,-0.0012216945178806782
1772556996873773300,5.700773193359375,-0.00030542362947016954,0,0.0007635590736754239
1772556996892546300,5.71954638671875,0.0007635590736754239,0.0006108472589403391,-0.0006108472589403391
1772556996911319000,5.738319091796875,-0.00030542362947016954,-0.0006108472589403391,0.0007635590736754239
1772556996930092000,5.757092041015625,-0.00030542362947016954,-0.0006108472589403391,0
1772556996948865000,5.775864990234375,-0.0004581354442052543,0.0006108472589403391,0.0006108472589403391
1772556996967638000,5.794637939453125,-0.0015271181473508477,0,-0.0006108472589403391
1772556996986411000,5.813410888671875,-0.0015271181473508477,-0.0006108472589403391,0
1772556997005184000,5.83218408203125,0.00015271181473508477,0.0006108472589403391,0.0006108472589403391
1772556997023957000,5.85095703125,0.00015271181473508477,0,0.0007635590736754239
1772556997042729700,5.869729736328125,0.00015271181473508477,0,0
1772556997061502700,5.888502685546875,0.00015271181473508477,0,0
1772556997080275700,5.907275634765625,-0.0004581354442052543,-0.0006108472589403391,0.00015271181473508477
1772556997099048700,5.926048583984375,0.00030542362947016954,0,0.0006108472589403391
1772556997117821400,5.944821533203125,0.00030542362947016954,0,-0.0006108472589403391
1772556997136594400,5.963594482421875,-0.0009162708884105086,-0.0006108472589403391,-0.0006108472589403391
1772556997155367400,5.982367431640625,-0.00030542362947016954,0,-0.0006108472589403391
1772556997174140400,6.001140380859375,-0.0009162708884105086,-0.0006108472589403391,0.00015271181473508477
1772556997192913400,6.019913330078125,-0.00030542362947016954,-0.0006108472589403391,-0.0006108472589403391
1772556997211686400,6.038686279296875,-0.0015271181473508477,0.0006108472589403391,0
1772556997230459400,6.05745947265625,-0.00030542362947016954,-0.0004581354442052543,0.0007635590736754239
1772556997249232100,6.076232177734375,-0.00030542362947016954,-0.0006108472589403391,-0.0012216945178806782
1772556997268005000,6.095005126953125,-0.00030542362947016954,0,0.0007635590736754239
1772556997286778000,6.113778076171875,-0.00030542362947016954,0,0
1772556997305551000,6.132551025390625,0.00015271181473508477,0,0
1772556997324324000,6.151323974609375,-0.0009162708884105086,-0.0006108472589403391,-0.0006108472589403391
1772556997343097000,6.17009716796875,0.0007635590736754239,0.0006108472589403391,0
1772556997361869800,6.188869873046875,-0.0004581354442052543,-0.0012216945178806782,-0.0012216945178806782
1772556997380642800,6.207642822265625,0.00030542362947016954,-0.0006108472589403391,0.0007635590736754239
1772556997399415800,6.226415771484375,-0.0004581354442052543,0,-0.0012216945178806782
1772556997418188800,6.245188720703125,-0.0004581354442052543,0,0.0007635590736754239
1772556997436961800,6.2639619140625,0.00015271181473508477,0,0.0007635590736754239
1772556997455734500,6.282734619140625,-0.0004581354442052543,0.0006108472589403391,0
1772556997474507500,6.301507568359375,-0.00030542362947016954,0,0.0006108472589403391
1772556997493280500,6.320280517578125,-0.0004581354442052543,0.0006108472589403391,0.0006108472589403391
1772556997512053500,6.339053466796875,-0.0004581354442052543,0.0006108472589403391,0
1772556997530826500,6.357826416015625,-0.0004581354442052543,0,-0.0006108472589403391
1772556997549599500,6.376599609375,0.00015271181473508477,0,0
1772556997568372500,6.39537255859375,0.00015271181473508477,-0.0006108472589403391,-0.0006108472589403391
1772556997587145200,6.414145263671875,-0.0009162708884105086,0.0006108472589403391,-0.0006108472589403391
1772556997605918200,6.432918212890625,-0.0004581354442052543,0,-0.0006108472589403391
1772556997624691200,6.451691162109375,0.00015271181473508477,0.00015271181473508477,0.0006108472589403391
1772556997643464200,6.470464111328125,-0.0004581354442052543,0,0
1772556997662237200,6.4892373046875,0.00015271181473508477,0,-0.0006108472589403391
1772556997681010200,6.50801025390625,0.0007635590736754239,-0.0006108472589403391,0.00015271181473508477
1772556997699783200,6.526783203125,0.00015271181473508477,0.0006108472589403391,-0.0006108472589403391
1772556997718556200,6.54555615234375,0.00030542362947016954,0.00015271181473508477,0.001374406274408102
1772556997737329000,6.564328857421875,0.00030542362947016954,0.0006108472589403391,0
1772556997756102000,6.583101806640625,-0.0009162708884105086,0,-0.0006108472589403391
1772556997774875000,6.601875,0.0007635590736754239,0.0012216945178806782,0.0006108472589403391
1772556997793647900,6.62064794921875,-0.00030542362947016954,-0.0004581354442052543,0.0007635590736754239
1772556997812420900,6.6394208984375,0.0007635590736754239,0,-0.0012216945178806782
1772556997831193900,6.65819384765625,-0.00030542362947016954,0,0
1772556997849966600,6.676966552734375,0.00030542362947016954,0.0006108472589403391,-0.0006108472589403391
1772556997868739600,6.695739501953125,0.0009162708884105086,-0.0012216945178806782,0.00015271181473508477
1772556997887512600,6.7145126953125,0.0009162708884105086,-0.0006108472589403391,0
1772556997906285600,6.73328564453125,-0.0004581354442052543,-0.0018325417768210173,0.00015271181473508477
1772556997925058600,6.75205859375,0.0007635590736754239,0,-0.0006108472589403391
1772556997943831600,6.77083154296875,-0.0010689827613532543,0,-0.0006108472589403391
1772556997962604500,6.7896044921875,-0.0004581354442052543,0.0006108472589403391,0
1772556997981377500,6.80837744140625,-0.0004581354442052543,0.0006108472589403391,0
1772556998000150500,6.827150634765625,0.00015271181473508477,0.0006108472589403391,0
1772556998018923300,6.84592333984375,-0.0004581354442052543,-0.0012216945178806782,0.00015271181473508477
1772556998037696300,6.8646962890625,0.00015271181473508477,0,-0.0006108472589403391
1772556998056469200,6.88346923828125,-0.0004581354442052543,0,-0.0006108472589403391
1772556998075242200,6.9022421875,0.0007635590736754239,0.0006108472589403391,-0.0012216945178806782
1772556998094015200,6.92101513671875,0.00015271181473508477,0,-0.0012216945178806782
1772556998112788200,6.939788330078125,-0.0016798300202935934,-0.0010689827613532543,0.001985253533348441
1772556998131561200,6.958561279296875,-0.0004581354442052543,0.0007635590736754239,0.0012216945178806782
1772556998150334200,6.977334228515625,-0.0004581354442052543,0.0007635590736754239,0.0012216945178806782
1772556998169107200,6.996107177734375,-0.0010689827613532543,0.0006108472589403391,0.0006108472589403391
1772556998187880200,7.014880126953125,-0.0004581354442052543,0.0006108472589403391,0
1772556998206653200,7.033653076171875,0.00030542362947016954,0.00015271181473508477,0
1772556998225426000,7.052426025390625,-0.00030542362947016954,0.0007635590736754239,0.0006108472589403391
1772556998244199000,7.071198974609375,0.00030542362947016954,0.00015271181473508477,0
1772556998262972000,7.089971923828125,0.0009162708884105086,-0.0004581354442052543,-0.001985253533348441
1772556998281745000,7.108744873046875,-0.00030542362947016954,0.001374406274408102,-0.001374406274408102
1772556998300518000,7.127517822265625,0.00030542362947016954,-0.0004581354442052543,-0.0006108472589403391
1772556998319291000,7.146290771484375,-0.00030542362947016954,0.00015271181473508477,0.0006108472589403391
1772556998338064000,7.16506396484375,0.00030542362947016954,0.00015271181473508477,-0.0006108472589403391
1772556998356836900,7.1838369140625,-0.00030542362947016954,0.001374406274408102,-0.00015271181473508477
1772556998375609900,7.20260986328125,-0.0009162708884105086,0.0007635590736754239,-0.00015271181473508477
1772556998394382800,7.2213828125,0.00030542362947016954,-0.0004581354442052543,0
1772556998413155800,7.24015576171875,0.0009162708884105086,0.00015271181473508477,-0.0007635590736754239
1772556998431928800,7.2589287109375,-0.00030542362947016954,-0.0010689827613532543,-0.0006108472589403391
1772556998450701800,7.277701904296875,0.0009162708884105086,0.00015271181473508477,0.0012216945178806782
1772556998469474600,7.296474609375,-0.0009162708884105086,0.00015271181473508477,-0.0007635590736754239
1772556998488247600,7.31524755859375,-0.00030542362947016954,-0.0004581354442052543,0
1772556998507020500,7.3340205078125,0.00030542362947016954,-0.0004581354442052543,-0.0006108472589403391
1772556998525793500,7.35279345703125,-0.00030542362947016954,0.00015271181473508477,0.0006108472589403391
1772556998544566500,7.37156640625,0.0009162708884105086,0.00015271181473508477,0
1772556998563339500,7.390339599609375,-0.00030542362947016954,0.0007635590736754239,0
1772556998582112500,7.409112548828125,-0.00030542362947016954,-0.0004581354442052543,0.0024433890357613564
1772556998600885500,7.427885498046875,0.00030542362947016954,0.0007635590736754239,-0.001374406274408102
1772556998619658500,7.446658447265625,0.00030542362947016954,0.00015271181473508477,0
1772556998638431500,7.465431396484375,0.00030542362947016954,-0.0004581354442052543,0.0006108472589403391
1772556998657204500,7.48420458984375,0.00030542362947016954,0.00015271181473508477,-0.0007635590736754239
1772556998675977500,7.5029775390625,0.0009162708884105086,-0.0004581354442052543,0.0006108472589403391
1772556998694750500,7.52175048828125,-0.00030542362947016954,0.00015271181473508477,0
1772556998713523500,7.5405234375,0.00030542362947016954,0.00015271181473508477,0
1772556998732296400,7.55929638671875,-0.00030542362947016954,0.00015271181473508477,0
1772556998751069400,7.5780693359375,0.00030542362947016954,0.0007635590736754239,-0.00015271181473508477
1772556998769842400,7.596842529296875,-0.00030542362947016954,-0.0004581354442052543,0.0006108472589403391
1772556998788615400,7.615615478515625,0.00030542362947016954,0.00015271181473508477,-0.0007635590736754239
1772556998807388400,7.634388427734375,0.00030542362947016954,-0.0004581354442052543,0.0006108472589403391
1772556998826161400,7.653161376953125,0.00030542362947016954,0.00015271181473508477,-0.0007635590736754239
1772556998844934400,7.671934326171875,-0.0009162708884105086,0.00015271181473508477,0.0012216945178806782
1772556998863707400,7.690707275390625,0.00030542362947016954,-0.0004581354442052543,0
1772556998882480400,7.70948046875,0.00030542362947016954,0.00015271181473508477,0
1772556998901253400,7.72825341796875,-0.0009162708884105086,-0.0004581354442052543,0.0012216945178806782
1772556998920026400,7.7470263671875,-0.0015271181473508477,0.0007635590736754239,-0.001374406274408102
1772556998938799400,7.76579931640625,-0.00030542362947016954,-0.0010689827613532543,-0.0006108472589403391
1772556998957572400,7.784572265625,0.00030542362947016954,0.00015271181473508477,0.0012216945178806782
1772556998976345000,7.803344970703125,0.0009162708884105086,0.001374406274408102,-0.00015271181473508477
1772556998995118300,7.822118408203125,-0.00030542362947016954,-0.0004581354442052543,0
1772556999013891000,7.84089111328125,0.00030542362947016954,0.00015271181473508477,-0.0006108472589403391
1772556999032664300,7.859664306640625,-0.00030542362947016954,0.00015271181473508477,-0.0007635590736754239
1772556999051437300,7.878437255859375,0.0009162708884105086,-0.0004581354442052543,0
1772556999070210300,7.897210205078125,-0.00030542362947016954,0.00015271181473508477,0
1772556999088983300,7.9159833984375,-0.0009162708884105086,-0.0004581354442052543,0.0006108472589403391
1772556999107756000,7.934756103515625,-0.0009162708884105086,-0.0004581354442052543,0
1772556999126529300,7.953529296875,-0.00030542362947016954,0.001374406274408102,0.0006108472589403391
1772556999145302000,7.972302001953125,0.00030542362947016954,-0.0010689827613532543,0
1772556999164075300,7.9910751953125,-0.00030542362947016954,0.0007635590736754239,-0.0007635590736754239
1772556999182848000,8.009847900390625,0.00030542362947016954,0.00015271181473508477,0.0006108472589403391
1772556999201621200,8.028621337890625,0.00030542362947016954,0.00015271181473508477,0
1772556999220394000,8.04739404296875,0.00030542362947016954,0.00015271181473508477,0.0012216945178806782
1772556999239167200,8.066167236328125,-0.00030542362947016954,-0.0010689827613532543,-0.0006108472589403391
1772556999257940200,8.084940185546875,-0.00030542362947016954,0.00015271181473508477,0
1772556999276713200,8.103713134765625,0.00030542362947016954,-0.0004581354442052543,0
1772556999295486200,8.122486328125,-0.00030542362947016954,0.00015271181473508477,0
1772556999314259200,8.14125927734375,-0.00030542362947016954,0.00015271181473508477,0
1772556999333032200,8.1600322265625,-0.0009162708884105086,0.00015271181473508477,-0.0006108472589403391
1772556999351805200,8.17880517578125,-0.00030542362947016954,-0.0004581354442052543,0.0006108472589403391
1772556999370578200,8.197578125,0.00030542362947016954,-0.0010689827613532543,0
1772556999389351200,8.21635107421875,0.00030542362947016954,0.00015271181473508477,0
1772556999408124200,8.235124267578126,-0.00030542362947016954,0.00015271181473508477,0.0006108472589403391
1772556999426897200,8.253897216796876,0.0015271181473508477,-0.0004581354442052543,-0.0006108472589403391
1772556999445670100,8.272670166015626,0.00030542362947016954,0.00015271181473508477,0
1772556999464443100,8.291443115234374,0.00030542362947016954,-0.0010689827613532543,-0.0006108472589403391
1772556999483216100,8.310216064453124,-0.00030542362947016954,0.00015271181473508477,0.0006108472589403391
1772556999501989000,8.328989013671874,0.00030542362947016954,-0.0004581354442052543,0
1772556999520762000,8.34776220703125,-0.00030542362947016954,0.00015271181473508477,-0.0007635590736754239
1772556999539535000,8.36653515625,0.00030542362947016954,-0.0010689827613532543,-0.0006108472589403391
1772556999558308000,8.38530810546875,-0.00030542362947016954,0.00015271181473508477,-0.0007635590736754239
1772556999577081000,8.4040810546875,-0.00030542362947016954,0.0007635590736754239,0.0012216945178806782
1772556999595854000,8.42285400390625,-0.00030542362947016954,0.00015271181473508477,0
1772556999614627000,8.441626953125,0.00030542362947016954,-0.0010689827613532543,0
1772556999633400000,8.460400146484375,-0.0009162708884105086,-0.0010689827613532543,-0.0012216945178806782
1772556999652173000,8.479173095703125,-0.0009162708884105086,-0.0004581354442052543,-0.0006108472589403391
1772556999670946000,8.497946044921875,0.00030542362947016954,-0.0010689827613532543,0
1772556999689719000,8.516718994140625,-0.00030542362947016954,0.00015271181473508477,-0.001374406274408102
1772556999708492300,8.5354921875,0.00030542362947016954,-0.0004581354442052543,0
1772556999727265300,8.554265380859375,-0.00030542362947016954,0.0007635590736754239,0
1772556999746038300,8.573038330078125,0.00030542362947016954,0.00015271181473508477,-0.0007635590736754239
1772556999764811300,8.591811279296875,0.00030542362947016954,0.00015271181473508477,-0.0007635590736754239
1772556999783584300,8.610584228515625,-0.00030542362947016954,0.00015271181473508477,0
1772556999802357200,8.629357177734375,0.0009162708884105086,0.0007635590736754239,0
1772556999821130200,8.648130126953125,0.0009162708884105086,-0.0009162708884105086,0.0006108472589403391
1772556999839903200,8.6669033203125,-0.0009162708884105086,0.00015271181473508477,0
1772556999858676200,8.68567626953125,-0.00030542362947016954,0.0007635590736754239,-0.001374406274408102
1772556999877449200,8.70444921875,-0.00030542362947016954,0.0007635590736754239,-0.0007635590736754239
1772556999896222200,8.72322216796875,-0.00030542362947016954,-0.0004581354442052543,-0.0006108472589403391
1772556999914995200,8.7419951171875,-0.00030542362947016954,0.00015271181473508477,0
1772556999933768200,8.760768310546876,0.0009162708884105086,-0.0010689827613532543,-0.0006108472589403391
1772556999952541200,8.779541259765624,-0.00030542362947016954,-0.0004581354442052543,0.00015271181473508477
1772556999971314200,8.798314208984374,-0.00030542362947016954,-0.0004581354442052543,0.00015271181473508477
1772556999990087200,8.817087158203124,0.00030542362947016954,-0.0009162708884105086,0.001374406274408102
1772557000008860400,8.8358603515625,0.00030542362947016954,0.00015271181473508477,0.00015271181473508477
1772557000027633400,8.85463330078125,0.00030542362947016954,0.00015271181473508477,0.0007635590736754239
1772557000046406400,8.873406494140625,0.00030542362947016954,-0.0016798300202935934,0.00015271181473508477
1772557000065179400,8.892179443359375,0.00030542362947016954,-0.0004581354442052543,0.0007635590736754239
1772557000083952400,8.910952392578125,0.00030542362947016954,-0.0004581354442052543,0.00015271181473508477
1772557000102725400,8.929725341796875,-0.00030542362947016954,0.0007635590736754239,0.00015271181473508477
1772557000121498400,8.948498291015625,0.00030542362947016954,0.00015271181473508477,0.00015271181473508477
1772557000140271400,8.967271240234375,-0.00030542362947016954,0.00015271181473508477,-0.0004581354442052543
1772557000159044400,8.98604443359375,-0.00030542362947016954,0.00030542362947016954,0.001374406274408102
1772557000177817300,9.0048173828125,-0.00030542362947016954,0.00015271181473508477,-0.0004581354442052543
1772557000196590600,9.023590576171875,0.00030542362947016954,0.00015271181473508477,0.00015271181473508477
1772557000215363600,9.042363525390625,-0.00030542362947016954,0.0007635590736754239,0.00015271181473508477
1772557000234136600,9.061136474609375,-0.00030542362947016954,-0.0004581354442052543,-0.0004581354442052543
1772557000252909600,9.07990966796875,0.00030542362947016954,0.0007635590736754239,0.00015271181473508477
1772557000271682600,9.0986826171875,0.00030542362947016954,0.0007635590736754239,0.0007635590736754239
1772557000290455600,9.11745556640625,-0.00030542362947016954,-0.0010689827613532543,-0.0004581354442052543
1772557000309228500,9.136228515625,0.0009162708884105086,-0.0010689827613532543,-0.0010689827613532543
1772557000328001500,9.15500146484375,-0.00030542362947016954,-0.0004581354442052543,-0.0004581354442052543
1772557000346774500,9.1737744140625,-0.00030542362947016954,-0.0010689827613532543,0.00015271181473508477
1772557000365547500,9.192547607421876,-0.00030542362947016954,0.00030542362947016954,0.0007635590736754239
1772557000384320500,9.211320556640626,-0.00030542362947016954,0.0007635590736754239,0.0007635590736754239
1772557000403093800,9.23009375,-0.0009162708884105086,-0.00030542362947016954,0.001374406274408102
1772557000421866800,9.24886669921875,-0.00030542362947016954,0.0009162708884105086,0.001374406274408102
1772557000440639700,9.2676396484375,0.00030542362947016954,-0.0004581354442052543,0.00015271181473508477
1772557000459412700,9.286412841796874,-0.0009162708884105086,-0.0004581354442052543,0.00015271181473508477
1772557000478185700,9.305185791015624,-0.00030542362947016954,0.00015271181473508477,-0.0004581354442052543
1772557000496958700,9.323958740234374,-0.0009162708884105086,-0.0004581354442052543,-0.0004581354442052543
1772557000515731700,9.342731689453124,-0.00030542362947016954,0.0007635590736754239,0.00015271181473508477
1772557000534504700,9.361504638671875,0.00030542362947016954,0.0007635590736754239,0.00015271181473508477
1772557000553277700,9.380277587890625,-0.00030542362947016954,-0.0004581354442052543,-0.0004581354442052543
1772557000572051000,9.399051025390625,-0.00030542362947016954,0.00015271181473508477,0.00015271181473508477
1772557000590824000,9.417823974609375,-0.00030542362947016954,-0.0009162708884105086,0.0007635590736754239
1772557000609597000,9.436596923828125,0.00030542362947016954,-0.0010689827613532543,-0.0004581354442052543
1772557000628370000,9.455369873046875,0.00030542362947016954,-0.00030542362947016954,0.0007635590736754239
1772557000647143000,9.474142822265625,-0.0009162708884105086,0.0007635590736754239,0.00015271181473508477
1772557000665916000,9.492916015625,-0.0009162708884105086,0.0007635590736754239,0.001374406274408102
1772557000684689000,9.51168896484375,0.00030542362947016954,0.00015271181473508477,0.00015271181473508477
1772557000703462100,9.530462158203125,0.00030542362947016954,-0.0010689827613532543,-0.0010689827613532543
1772557000722235100,9.549235107421875,0.00030542362947016954,0.0007635590736754239,0.0007635590736754239
1772557000741008100,9.568008056640625,-0.0009162708884105086,-0.0010689827613532543,0.00015271181473508477
1772557000759781000,9.586781005859375,-0.00030542362947016954,-0.0004581354442052543,-0.0010689827613532543
1772557000778554000,9.60555419921875,0.0009162708884105086,-0.0004581354442052543,0.00015271181473508477
1772557000797327000,9.6243271484375,-0.00030542362947016954,-0.0004581354442052543,-0.0004581354442052543
1772557000816100000,9.64310009765625,-0.00030542362947016954,-0.0004581354442052543,0.00015271181473508477
1772557000834873300,9.661873291015626,0.00030542362947016954,0.00030542362947016954,0.0007635590736754239
1772557000853646300,9.680646240234376,-0.00030542362947016954,0.001374406274408102,0.0006108472589403391
1772557000872419300,9.69941943359375,-0.00030542362947016954,0.00015271181473508477,0.00015271181473508477
1772557000891192300,9.7181923828125,-0.00030542362947016954,0.00015271181473508477,0.00015271181473508477
1772557000909965300,9.73696533203125,-0.00030542362947016954,0.00015271181473508477,0.00015271181473508477
1772557000928738300,9.75573828125,-0.00030542362947016954,-0.0004581354442052543,0.00015271181473508477
1772557000947511300,9.77451123046875,-0.00030542362947016954,0.00030542362947016954,0.0007635590736754239
1772557000966284500,9.793284423828124,-0.00030542362947016954,0.0007635590736754239,0.0007635590736754239
1772557000985057500,9.8120576171875,-0.00030542362947016954,-0.0009162708884105086,0.0007635590736754239
1772557001003830500,9.83083056640625,0.00030542362947016954,-0.0004581354442052543,0.00015271181473508477
1772557001022603500,9.849603515625,-0.00030542362947016954,0.0007635590736754239,0.00015271181473508477
1772557001041376500,9.86837646484375,-0.00030542362947016954,0.00015271181473508477,-0.0004581354442052543
1772557001060149500,9.8871494140625,0.00030542362947016954,-0.0010689827613532543,-0.0004581354442052543
1772557001078922500,9.905922607421875,-0.00030542362947016954,0.00015271181473508477,-0.0004581354442052543
1772557001097700900,9.924700927734374,-0.00030542362947016954,0.0007635590736754239,-0.0004581354442052543
1772557001116475000,9.943474853515625,-0.00030542362947016954,0.001374406274408102,-0.0018325417768210173
1772557001135248000,9.962247802734375,0.00030542362947016954,0.00015271181473508477,0.0038177953101694584
1772557001154020900,9.981020751953125,0.00030542362947016954,0.00015271181473508477,-0.0016798300202935934
1772557001172793900,9.9997939453125,-0.00030542362947016954,0.00015271181473508477,-0.005497625097632408
1772557001191566800,10.01856689453125,-0.00030542362947016954,-0.0009162708884105086,0.0007635590736754239
