time,seconds_elapsed,z,y,x
1772556870755411200,0.5844111328125,-0.02861309051513672,0.0032262876629829407,-0.0030701160430908203
1772556870774184700,0.603184814453125,-0.02397441864013672,0.0007348284125328064,-0.002977535128593445
1772556870792958500,0.62195849609375,-0.03459930419921875,0.002003200352191925,0.0006499439477920532
1772556870811732000,0.64073193359375,-0.033249855041503906,-0.003874167799949646,-0.00039768218994140625
1772556870830505700,0.659505615234375,-0.02606487274169922,-0.0027196332812309265,0.0057936012744903564
1772556870849279500,0.678279541015625,-0.02382183074951172,0.0031302645802497864,0.0033238232135772705
1772556870868053000,0.697052978515625,-0.025168418884277344,0.005537800490856171,0.005642712116241455
1772556870886826800,0.71582666015625,-0.026365280151367188,0.005607396364212036,0.0020889490842819214
1772556870905600300,0.734600341796875,-0.02217578887939453,0.0008883550763130188,-0.0016327351331710815
1772556870924374000,0.7533740234375,-0.029356956481933594,-0.0037726983428001404,-0.005186587572097778
1772556870943147800,0.772147705078125,-0.02935791015625,-0.00022265315055847168,-0.0028121918439865112
1772556870961921300,0.79092138671875,-0.03175163269042969,-0.0013110414147377014,0.00545346736907959
1772556870980695000,0.809695068359375,-0.028161048889160156,-0.0014468580484390259,0.007921501994132996
1772556870999468500,0.828468505859375,-0.03414440155029297,-0.0038261637091636658,-0.0027584880590438843
1772556871018242300,0.8472421875,-0.03414726257324219,-0.003926001489162445,0.006799653172492981
1772556871037015800,0.866015869140625,-0.03055858612060547,-0.001542702317237854,0.01265116035938263
1772556871055789600,0.88478955078125,-0.03055858612060547,0.000546671450138092,0.003111898899078369
1772556871074563300,0.903563232421875,-0.034149169921875,-0.0018904730677604675,0.000924527645111084
1772556871093336800,0.9223369140625,-0.02606964111328125,-0.004327252507209778,0.0020469576120376587
1772556871112110600,0.941110595703125,-0.029961585998535156,0.0039534792304039,-0.00031013786792755127
1772556871130884000,0.959884033203125,-0.032355308532714844,0.0015721395611763,0.0020655393600463867
1772556871149657900,0.978657958984375,-0.031159400939941406,0.004034101963043213,0.00552581250667572
1772556871168431600,0.997431640625,-0.031159400939941406,0.0041033923625946045,0.001859426498413086
1772556871187205000,1.016205078125,-0.027565956115722656,-0.001754656434059143,-0.0016382485628128052
1772556871205979000,1.034978759765625,-0.03354930877685547,-0.0039655789732933044,0.0021397173404693604
1772556871224752400,1.05375244140625,-0.02756214141845703,-0.0016692057251930237,0.002139151096343994
1772556871243526100,1.072526123046875,-0.02875804901123047,0.0007391870021820068,0.002231910824775696
1772556871262300000,1.0912998046875,-0.034743309020996094,-0.0028368979692459106,-0.0013781487941741943
1772556871281073400,1.110073486328125,-0.028759002685546875,0.0031999945640563965,0.004586264491081238
1772556871299847200,1.12884716796875,-0.03309917449951172,0.0029509663581848145,-0.005101054906845093
1772556871318620700,1.14762060546875,-0.03295135498046875,0.0027975142002105713,-0.0014737695455551147
1772556871337394400,1.16639453125,-0.029359817504882812,-0.0020867660641670227,0.002302318811416626
1772556871356168200,1.185168212890625,-0.030556678771972656,-0.0009320080280303955,0.0035360753536224365
1772556871374941700,1.203941650390625,-0.03294944763183594,-0.0008239075541496277,0.0047880858182907104
1772556871393715500,1.222715576171875,-0.036540985107421875,-0.004549764096736908,-0.0010096728801727295
1772556871412489000,1.241489013671875,-0.02816486358642578,-0.0035623013973236084,0.00005561113357543945
1772556871431262700,1.2602626953125,-0.026968002319335938,-0.001117013394832611,0.003683343529701233
1772556871450036200,1.2790361328125,-0.03415203094482422,-0.002505458891391754,0.002354532480239868
1772556871468810000,1.29781005859375,-0.03534984588623047,0.0011932030320167542,0.0046347081661224365
1772556871487583700,1.316583740234375,-0.030561447143554688,-0.0035224854946136475,0.0011168420314788818
1772556871506357200,1.335357177734375,-0.036548614501953125,0.0011651664972305298,0.0022394806146621704
1772556871525131000,1.354131103515625,-0.02817058563232422,0.0034800469875335693,-0.0016892850399017334
1772556871543904500,1.372904541015625,-0.026975631713867188,0.0023537203669548035,-0.001671433448791504
1772556871562678300,1.39167822265625,-0.035355567932128906,-0.008459433913230896,-0.0018019229173660278
1772556871581452000,1.4104521484375,-0.026976585388183594,-0.002458930015563965,-0.0030172616243362427
1772556871600225500,1.4292255859375,-0.0245819091796875,0.001352839171886444,0.010127082467079163
1772556871618999300,1.447999267578125,-0.03176403045654297,0.002302229404449463,-0.0016938894987106323
1772556871637772800,1.466772705078125,-0.03056621551513672,-0.004918619990348816,-0.004050686955451965
1772556871656546600,1.485546630859375,-0.029369354248046875,0.000799618661403656,-0.002646908164024353
1772556871675320300,1.5043203125,-0.034160614013671875,-0.00040114670991897583,0.0032611340284347534
1772556871694093800,1.52309375,-0.030869483947753906,-0.0006470605731010437,-0.005080431699752808
1772556871712867600,1.54186767578125,-0.02398681640625,-0.004334546625614166,-0.0014516711235046387
1772556871731641000,1.56064111328125,-0.027579307556152344,-0.004430070519447327,-0.002723708748817444
1772556871750414800,1.579414794921875,-0.03356742858886719,-0.004639424383640289,0.0008485019207000732
1772556871769188600,1.598188720703125,-0.02638530731201172,0.0011911094188690186,-0.002648279070854187
1772556871787962000,1.616962158203125,-0.03236961364746094,-0.002421662211418152,0.00217612087726593
1772556871806736000,1.63573583984375,-0.029974937438964844,0.007334008812904358,0.004603356122970581
1772556871825509400,1.65450927734375,-0.03595924377441406,-0.01062176376581192,-0.004583075642585754
1772556871844283100,1.673283203125,-0.02997589111328125,0.00014556944370269775,0.005753502249717712
1772556871863057000,1.692056884765625,-0.032370567321777344,-0.0023083090782165527,0.0008849650621414185
1772556871881830400,1.710830322265625,-0.02638530731201172,0.0012769103050231934,-0.00027896463871002197
1772556871900604200,1.729604248046875,-0.028329849243164062,0.00013000518083572388,-0.0074242353439331055
1772556871919377700,1.748377685546875,-0.028179168701171875,-0.0033152997493743896,0.0069701820611953735
1772556871938151400,1.7671513671875,-0.023392677307128906,0.0024561434984207153,-0.0016362965106964111
1772556871956925000,1.785925048828125,-0.03296852111816406,-0.007234588265419006,0.0033330172300338745
1772556871975698700,1.80469873046875,-0.029378890991210938,0.0011943727731704712,-0.0015332698822021484
1772556871994472400,1.823472412109375,-0.01980304718017578,0.005038343369960785,-0.0005638748407363892
1772556872013246000,1.842245849609375,-0.03296947479248047,0.0012908950448036194,0.0017134249210357666
1772556872032019700,1.861019775390625,-0.025783538818359375,-0.0011094212532043457,-0.00745043158531189
1772556872050793200,1.879793212890625,-0.022192001342773438,-0.004665642976760864,-0.000029802322387695312
1772556872069567000,1.89856689453125,-0.022192955017089844,-0.006183907389640808,0.00017243623733520508
1772556872088340700,1.9173408203125,-0.03790092468261719,0.0013108104467391968,0.003645196557044983
1772556872107114200,1.9361142578125,-0.031171798706054688,-0.001356281340122223,0.0024040043354034424
1772556872125888000,1.954887939453125,-0.031171798706054688,-0.0013608336448669434,0.002323359251022339
1772556872144661500,1.97366162109375,-0.03476428985595703,-0.0026186928153038025,-0.00003699958324432373
1772556872163435300,1.992435302734375,-0.028779983520507812,-0.001482345163822174,0.003472834825515747
1772556872182209000,2.011208984375,-0.02758312225341797,-0.0014868155121803284,0.003503963351249695
1772556872200982500,2.029982421875,-0.027584075927734375,-0.006277449429035187,0.0022268146276474
1772556872219756300,2.04875634765625,-0.029977798461914062,-0.005084209144115448,0.007138535380363464
1772556872238529800,2.06752978515625,-0.022795677185058594,-0.0027515292167663574,-0.00010289251804351807
1772556872257303600,2.086303466796875,-0.027586936950683594,-0.0004187077283859253,0.004546999931335449
1772556872276077300,2.105077392578125,-0.034768104553222656,-0.004011966288089752,-0.00020848214626312256
1772556872294850800,2.123850830078125,-0.028781890869140625,-0.003958612680435181,0.0034698545932769775
1772556872313624600,2.14262451171875,-0.022796630859375,-0.003905273973941803,0.004734233021736145
1772556872332398000,2.161398193359375,-0.0311737060546875,-0.002542458474636078,0.0034179985523223877
1772556872351171800,2.180171875,-0.0311737060546875,-0.0037986114621162415,0.007243603467941284
1772556872369945600,2.198945556640625,-0.031174659729003906,-0.0038576647639274597,0.002281203866004944
1772556872388719000,2.217718994140625,-0.023993492126464844,-0.0014124512672424316,0.0045935362577438354
1772556872407492900,2.236492919921875,-0.03596305847167969,-0.00147295743227005,-0.0013014376163482666
1772556872426266400,2.255266357421875,-0.029976844787597656,-0.00022404640913009644,0.0023207664489746094
1772556872445040000,2.2740400390625,-0.025188446044921875,-0.002566218376159668,0.0034929215908050537
1772556872463814000,2.29281396484375,-0.035961151123046875,0.0009242519736289978,-0.0013724863529205322
1772556872482587400,2.31158740234375,-0.031174659729003906,-0.00012906640768051147,0.002138465642929077
1772556872501361200,2.330361083984375,-0.02938079833984375,-0.003366917371749878,0.004393398761749268
1772556872520134700,2.349134765625,-0.026987075805664062,0.0014712214469909668,0.0053577423095703125
1772556872538908400,2.367908447265625,-0.03536796569824219,-0.004664875566959381,0.000489354133605957
1772556872557682000,2.386681884765625,-0.025789260864257812,-0.0023684948682785034,-0.005308806896209717
1772556872576455700,2.40545556640625,-0.022199630737304688,0.002411961555480957,-0.002000942826271057
1772556872595229400,2.4242294921875,-0.026990890502929688,-0.0035395920276641846,0.00524844229221344
1772556872614003000,2.4430029296875,-0.036568641662597656,-0.0013555586338043213,0.002679765224456787
1772556872632776700,2.461776611328125,-0.025795936584472656,-0.0011162757873535156,0.001607447862625122
1772556872651550200,2.48055029296875,-0.02819061279296875,-0.0026151835918426514,0.0025730133056640625
1772556872670324000,2.499323974609375,-0.035373687744140625,-0.0047686100006103516,0.007389456033706665
1772556872689097700,2.51809765625,-0.03417491912841797,-0.0012188553810119629,0.004968583583831787
1772556872707871200,2.536871337890625,-0.03058338165283203,-0.008343018591403961,0.006343021988868713
1772556872726645000,2.55564501953125,-0.03178215026855469,-0.0026245489716529846,-0.003252774477005005
1772556872745418500,2.57441845703125,-0.028191566467285156,0.0020998045802116394,-0.0021699219942092896
1772556872764192300,2.593192138671875,-0.02460002899169922,0.0008996874094009399,-0.004436329007148743
1772556872782966000,2.611966064453125,-0.03058338165283203,0.0009492412209510803,-0.005538955330848694
1772556872801739500,2.630739501953125,-0.032978057861328125,-0.002588048577308655,-0.0044553279876708984
1772556872820513300,2.64951318359375,-0.029384613037109375,-0.007207654416561127,-0.0055207908153533936
1772556872839286800,2.668286865234375,-0.026990890502929688,-0.002310343086719513,-0.0020073354244232178
1772556872858060500,2.687060546875,-0.02219867706298828,-0.004182778298854828,0.00640048086643219
1772556872876834300,2.705834228515625,-0.03177452087402344,-0.0007289424538612366,0.0025800466537475586
1772556872895607800,2.72460791015625,-0.028183937072753906,0.0030048489570617676,0.006348177790641785
1772556872914381600,2.743381591796875,-0.03326988220214844,0.005407616496086121,0.003722667694091797
1772556872933155000,2.762155029296875,-0.03416919708251953,0.003062009811401367,0.0012482702732086182
1772556872951928800,2.7809287109375,-0.021146774291992188,0.0033344104886054993,-0.002101510763168335
1772556872970702600,2.79970263671875,-0.03296470642089844,-0.00128985196352005,-0.006793797016143799
1772556872989476000,2.81847607421875,-0.04014396667480469,-0.0010690465569496155,-0.004362583160400391
1772556873008249900,2.837249755859375,-0.026978492736816406,-0.0034084096550941467,0.0015414655208587646
1772556873027023400,2.8560234375,-0.025781631469726562,-0.005503639578819275,0.007384687662124634
1772556873045797000,2.874797119140625,-0.0293731689453125,-0.002270437777042389,0.005074933171272278
1772556873064571000,2.89357080078125,-0.025780677795410156,0.001986853778362274,0.009626179933547974
1772556873083344400,2.912344482421875,-0.025777816772460938,-0.0030846819281578064,0.003820851445198059
1772556873102118100,2.9311181640625,-0.03116607666015625,-0.004340663552284241,0.00015152990818023682
1772556873120891600,2.9498916015625,-0.0263824462890625,0.002664536237716675,-0.00003965198993682861
1772556873139665400,2.96866552734375,-0.032367706298828125,-0.003416098654270172,-0.0024544447660446167
1772556873158439200,2.987439208984375,-0.031172752380371094,0.00863463431596756,-0.007464572787284851
1772556873177212700,3.006212646484375,-0.034763336181640625,-0.00453522801399231,-0.002433761954307556
1772556873195986400,3.024986328125,-0.023988723754882812,0.0027888640761375427,0.007225245237350464
1772556873214760000,3.043760009765625,-0.0263824462890625,-0.006878890097141266,0.001215234398841858
1772556873233533700,3.06253369140625,-0.03595733642578125,0.0003556683659553528,0.005973637104034424
1772556873252307500,3.081307373046875,-0.03595733642578125,-0.004321008920669556,0.0035532116889953613
1772556873271081000,3.1000810546875,-0.02398681640625,-0.0007321760058403015,-0.001258566975593567
1772556873289854700,3.118854736328125,-0.03476142883300781,0.00034765899181365967,-0.0036726146936416626
1772556873308628200,3.137628173828125,-0.043143272399902344,-0.002162538468837738,-0.0024953633546829224
1772556873327402000,3.156402099609375,-0.028779029846191406,-0.0033621564507484436,-0.0073549747467041016
1772556873346175700,3.17517578125,-0.03715801239013672,-0.0021103844046592712,-0.005036145448684692
1772556873364949200,3.19394921875,-0.03236961364746094,-0.0020003169775009155,-0.003858789801597595
1772556873383723000,3.212722900390625,-0.032372474670410156,0.0014717653393745422,0.005632758140563965
1772556873402496500,3.23149658203125,-0.031174659729003906,0.00032620877027511597,0.0019598454236984253
1772556873421270300,3.250270263671875,-0.03715801239013672,-0.0020729824900627136,0.009280264377593994
1772556873440043800,3.269043701171875,-0.03476524353027344,0.00031716376543045044,0.000932157039642334
1772556873458817500,3.287817626953125,-0.028777122497558594,0.0054129958152771,0.004402369260787964
1772556873477591300,3.30659130859375,-0.026384353637695312,-0.0068746209144592285,0.003590911626815796
1772556873496364800,3.32536474609375,-0.037156105041503906,-0.0020330771803855896,0.0011356323957443237
1772556873515138600,3.344138671875,-0.032364845275878906,0.00041100382804870605,-0.0011109411716461182
1772556873533912000,3.362912109375,-0.02518463134765625,-0.006825484335422516,-0.004776284098625183
1772556873552685800,3.381685791015625,-0.032367706298828125,-0.0008509829640388489,0.0011338591575622559
1772556873571459600,3.40045947265625,-0.035956382751464844,0.0015226304531097412,-0.0012515783309936523
1772556873590233000,3.419233154296875,-0.03117084503173828,-0.006867505609989166,0.002361789345741272
1772556873609006800,3.4380068359375,-0.03236865997314453,-0.005794800817966461,0.002552539110183716
1772556873627780400,3.4567802734375,-0.02877521514892578,-0.0056936293840408325,0.0012477189302444458
1772556873646554000,3.47555419921875,-0.034760475158691406,0.005169205367565155,0.0012334734201431274
1772556873665327900,3.494327880859375,-0.02398681640625,-0.0019743815064430237,0.0035561025142669678
1772556873684101400,3.513101318359375,-0.03595542907714844,0.004043072462081909,-0.0022691041231155396
1772556873702875100,3.531875244140625,-0.0245819091796875,-0.00035196542739868164,0.0025044381618499756
1772556873721648600,3.550648681640625,-0.03176403045654297,0.002917774021625519,-0.002386242151260376
1772556873740422400,3.56942236328125,-0.029372215270996094,-0.012760862708091736,-0.007084906101226807
1772556873759196200,3.588196044921875,-0.030569076538085938,-0.0031611621379852295,0.0014485716819763184
1772556873777969700,3.6069697265625,-0.029372215270996094,-0.0007487088441848755,0.0063307881355285645
1772556873796743400,3.625743408203125,-0.029372215270996094,0.002727031707763672,0.004966601729393005
1772556873815517000,3.644516845703125,-0.03056621551513672,-0.003067702054977417,0.00620095431804657
1772556873834290700,3.663290771484375,-0.026976585388183594,-0.004166372120380402,0.005135759711265564
1772556873853064200,3.682064208984375,-0.03296184539794922,-0.005785100162029266,-0.0020014792680740356
1772556873871838000,3.700837890625,-0.030567169189453125,0.002461455762386322,-0.00444050133228302
1772556873890611700,3.71961181640625,-0.031912803649902344,-0.002286665141582489,-0.00298956036567688
1772556873909385200,3.73838525390625,-0.02398204803466797,-0.0070307329297065735,-0.005294710397720337
1772556873928159000,3.757158935546875,-0.02637958526611328,0.00007075071334838867,-0.004367604851722717
1772556873946932500,3.775932373046875,-0.02637767791748047,-0.0010307952761650085,-0.001983538269996643
1772556873965706200,3.794706298828125,-0.03715038299560547,0.00025963038206100464,0.003985241055488586
1772556873984480000,3.81347998046875,-0.026376724243164062,-0.003197677433490753,0.002885952591896057
1772556874003253500,3.83225341796875,-0.028771400451660156,0.0003193765878677368,0.007595717906951904
1772556874022027300,3.85102734375,-0.034755706787109375,0.001460142433643341,0.001651868224143982
1772556874040800800,3.86980078125,-0.02637958526611328,-0.0010100752115249634,-0.002059340476989746
1772556874059574500,3.888574462890625,-0.029970169067382812,-0.0010845810174942017,-0.00804583728313446
1772556874078348300,3.907348388671875,-0.033560752868652344,0.003737129271030426,-0.005600824952125549
1772556874097121800,3.926121826171875,-0.024732589721679688,-0.000955626368522644,0.0015109330415725708
1772556874115895600,3.9448955078125,-0.029372215270996094,-0.005492269992828369,0.006166025996208191
1772556874134669000,3.9636689453125,-0.032962799072265625,0.0016319826245307922,0.00016885995864868164
1772556874153442800,3.98244287109375,-0.026979446411132812,0.004001401364803314,0.002436205744743347
1772556874172216600,4.001216552734375,-0.026978492736816406,-0.005642242729663849,0.003672465682029724
1772556874190990000,4.019989990234375,-0.0293731689453125,0.00043676793575286865,-0.003573864698410034
1772556874209763800,4.038763916015625,-0.029371261596679688,0.0006791502237319946,0.000005558133125305176
1772556874228537600,4.05753759765625,-0.02817535400390625,-0.0030751079320907593,-0.002342209219932556
1772556874247311000,4.07631103515625,-0.031767845153808594,0.00038423389196395874,-0.0036025643348693848
1772556874266084900,4.0950849609375,-0.0293731689453125,0.0015596598386764526,-0.006037130951881409
1772556874284858400,4.1138583984375,-0.025780677795410156,-0.0008515045046806335,-0.0022495388984680176
1772556874303632100,4.132632080078125,-0.028623580932617188,-0.0032047778367996216,-0.004592582583427429
1772556874322406000,4.151406005859375,-0.027426719665527344,0.001507781445980072,0.003768905997276306
1772556874341179400,4.170179443359375,-0.038051605224609375,-0.0033011212944984436,0.0060865432024002075
1772556874359953200,4.188953125,-0.030721664428710938,-0.003222264349460602,0.007206127047538757
1772556874378726700,4.2077265625,-0.032965660095214844,-0.006822407245635986,0.004793375730514526
1772556874397500400,4.22650048828125,-0.029527664184570312,-0.005842253565788269,-0.0013143271207809448
1772556874416274200,4.245274169921875,-0.031023025512695312,0.003766477108001709,-0.0024634897708892822
1772556874435047700,4.264047607421875,-0.027434349060058594,0.0012393742799758911,-0.002584218978881836
1772556874453821400,4.282821533203125,-0.03311920166015625,-0.008231446146965027,0.002188771963119507
1772556874472595000,4.301594970703125,-0.023694992065429688,-0.0034743770956993103,-0.0038048774003982544
1772556874491368700,4.32036865234375,-0.032222747802734375,-0.004831790924072266,0.0010253489017486572
1772556874510142500,4.339142578125,-0.029979705810546875,-0.004787124693393707,0.003346279263496399
1772556874528916000,4.357916015625,-0.025191307067871094,-0.00007319450378417969,-0.0002006441354751587
1772556874547689700,4.376689697265625,-0.027586936950683594,-0.0023396238684654236,0.0033172816038131714
1772556874566463200,4.395463134765625,-0.027585983276367188,-0.0048946812748909,-0.003815770149230957
1772556874585237000,4.414237060546875,-0.03955554962158203,0.0022657662630081177,-0.006156548857688904
1772556874604010500,4.433010498046875,-0.027584075927734375,0.0022437721490859985,-0.0071865469217300415
1772556874622784300,4.4517841796875,-0.026386260986328125,0.0010264068841934204,0.000040218234062194824
1772556874641558000,4.47055810546875,-0.032372474670410156,-0.0025791525840759277,-0.006005048751831055
1772556874660331500,4.48933154296875,-0.03716278076171875,0.0033755451440811157,-0.00253431499004364
1772556874679105300,4.508105224609375,-0.027585983276367188,-0.003820165991783142,0.0010997802019119263
1772556874697878800,4.526878662109375,-0.027135848999023438,0.0010608658194541931,-0.0013609379529953003
1772556874716652500,4.545652587890625,-0.036561012268066406,-0.0035714954137802124,-0.0012587904930114746
1772556874735426300,4.56442626953125,-0.02818012237548828,9.685754776000977e-8,0.0035694092512130737
1772556874754199800,4.58319970703125,-0.025786399841308594,-0.0012709498405456543,0.0036092549562454224
1772556874772973600,4.6019736328125,-0.025786399841308594,-0.0012296289205551147,-0.0047204941511154175
1772556874791747000,4.6207470703125,-0.029376983642578125,0.0021722614765167236,0.001418575644493103
1772556874810520800,4.639520751953125,-0.02937793731689453,-0.00023956596851348877,0.00020895898342132568
1772556874829294600,4.658294677734375,-0.03536415100097656,-0.0014503374695777893,-0.0010566860437393188
1772556874848068000,4.677068115234375,-0.02698516845703125,-0.0014094337821006775,-0.0035708993673324585
1772556874866841900,4.695841796875,-0.026987075805664062,0.00215969979763031,-0.00010377168655395508
1772556874885615400,4.714615478515625,-0.02339649200439453,-0.0014559775590896606,0.0011366009712219238
1772556874904389000,4.73338916015625,-0.02938079833984375,0.0012174993753433228,0.00581049919128418
1772556874923163000,4.752162841796875,-0.02219867706298828,-0.0021265745162963867,0.0057333409786224365
1772556874941936400,4.770936279296875,-0.02579021453857422,-0.0013004690408706665,-0.00005885958671569824
1772556874960710100,4.789710205078125,-0.03417015075683594,-0.006304509937763214,-0.006102144718170166
1772556874979484000,4.80848388671875,-0.0329742431640625,-0.0015874430537223816,-0.0036028921604156494
1772556874998257400,4.82725732421875,-0.023393630981445312,-0.0013983473181724548,-0.00353395938873291
1772556875017031200,4.84603125,-0.030576705932617188,0.0008275434374809265,0.0022292286157608032
1772556875035804700,4.8648046875,-0.03297233581542969,-0.00044233351945877075,-0.006004065275192261
1772556875054578400,4.883578369140625,-0.028183937072753906,-0.003988511860370636,-0.00352400541305542
1772556875073352200,4.902352294921875,-0.023397445678710938,0.0006680265069007874,-0.00015085935592651367
1772556875092125700,4.921125732421875,-0.03207588195800781,-0.006522268056869507,0.0012379586696624756
1772556875110899500,4.9398994140625,-0.033573150634765625,-0.000441133975982666,0.0023062676191329956
1772556875129673000,4.9586728515625,-0.027586936950683594,0.002100326120853424,0.0010390430688858032
1772556875148446700,4.97744677734375,-0.03117656707763672,-0.00389687716960907,0.002332746982574463
1772556875167220500,4.996220458984375,-0.029981613159179688,-0.005104735493659973,-0.0048536211252212524
1772556875185994000,5.014993896484375,-0.03357124328613281,-0.0027797743678092957,0.003619834780693054
1772556875204767700,5.033767822265625,-0.037158966064453125,-0.0014851167798042297,0.00012834370136260986
1772556875223541200,5.052541259765625,-0.029976844787597656,-0.005029410123825073,-0.003470122814178467
1772556875242315000,5.07131494140625,-0.031172752380371094,-0.004925735294818878,0.0026100873947143555
1772556875261088800,5.0900888671875,-0.01920032501220703,-0.0001554936170578003,-0.0009357631206512451
1772556875279862300,5.1088623046875,-0.02758026123046875,-0.003758743405342102,0.0038902312517166138
1772556875298636000,5.127635986328125,-0.03191947937011719,-0.006210193037986755,-0.002051234245300293
1772556875317409500,5.146409423828125,-0.025783538818359375,0.0012763068079948425,0.00012381374835968018
1772556875336183300,5.165183349609375,-0.029375076293945312,0.0061928629875183105,0.006141945719718933
1772556875354956800,5.183956787109375,-0.035361289978027344,-0.004881024360656738,0.0014297515153884888
1772556875373730600,5.20273046875,-0.029375076293945312,-0.002455689013004303,0.0015812218189239502
1772556875392504300,5.22150439453125,-0.02458667755126953,-0.009667932987213135,-0.0020225346088409424
1772556875411277800,5.24027783203125,-0.02818012237548828,-0.00010272860527038574,-0.00007270276546478271
1772556875430051600,5.259051513671875,-0.02937793731689453,-0.004855737090110779,0.002564668655395508
1772556875448825000,5.2778251953125,-0.035363197326660156,-0.001366928219795227,-0.001094222068786621
1772556875467598800,5.296598876953125,-0.028181076049804688,0.002153843641281128,0.0037299692630767822
1772556875486372600,5.31537255859375,-0.034165382385253906,-0.004973813891410828,0.0025142282247543335
1772556875505146000,5.33414599609375,-0.03476524353027344,-0.010893851518630981,0.0013370513916015625
1772556875523920000,5.352919921875,-0.032372474670410156,-0.006105333566665649,-0.00002415478229522705
1772556875542693400,5.371693359375,-0.0335693359375,0.0034562572836875916,-0.000039249658584594727
1772556875561467100,5.390467041015625,-0.028779983520507812,-0.009706415235996246,0.0001528710126876831
1772556875580241000,5.409240966796875,-0.028779983520507812,-0.0013354122638702393,-0.0023447424173355103
1772556875599014400,5.428014404296875,-0.020401954650878906,-0.005039185285568237,-0.0011056363582611084
1772556875617788200,5.4467880859375,-0.037158966064453125,-0.00020484626293182373,0.001328587532043457
1772556875636561700,5.465561767578125,-0.02878093719482422,-0.00021505355834960938,0.0024512261152267456
1772556875655335400,5.48433544921875,-0.02399158477783203,-0.008589841425418854,0.006279125809669495
1772556875674109200,5.503109130859375,-0.03476428985595703,-0.004942387342453003,0.0013795346021652222
1772556875692882700,5.521882568359375,-0.034462928771972656,-0.003691837191581726,0.00022326409816741943
1772556875711656400,5.540656494140625,-0.034165382385253906,-0.009669654071331024,-0.003433406352996826
1772556875730430200,5.55943017578125,-0.0293731689453125,-0.0060232654213905334,0.00156363844871521
1772556875749203700,5.57820361328125,-0.034160614013671875,0.000008456408977508545,0.0015093982219696045
1772556875767977500,5.5969775390625,-0.03415870666503906,-0.002222098410129547,0.003974989056587219
1772556875786751000,5.6157509765625,-0.023386001586914062,-0.0069513022899627686,0.0027017444372177124
1772556875805524700,5.634524658203125,-0.03176689147949219,-0.0010310560464859009,-0.008221134543418884
1772556875824298200,5.65329833984375,-0.02338695526123047,-0.003223635256290436,0.0026264190673828125
1772556875843072000,5.672072021484375,-0.028173446655273438,-0.0007641837000846863,-0.0009765326976776123
1772556875861845800,5.690845703125,-0.02817535400390625,-0.0030701160430908203,0.004929870367050171
1772556875880619300,5.709619384765625,-0.030570030212402344,-0.0007771402597427368,-0.0011247992515563965
1772556875899393000,5.72839306640625,-0.032212257385253906,0.005243971943855286,-0.005803748965263367
1772556875918166800,5.747166748046875,-0.02637767791748047,0.00767100602388382,-0.002372756600379944
1772556875936940300,5.765940185546875,-0.03445911407470703,-0.006690815091133118,-0.0047364383935928345
1772556875955714000,5.784714111328125,-0.033265113830566406,-0.003167100250720978,-0.0001312345266342163
1772556875974487600,5.803487548828125,-0.028476715087890625,-0.003226041793823242,0.001160457730293274
1772556875993261300,5.82226123046875,-0.024735450744628906,-0.006870456039905548,-0.0036366283893585205
1772556876012035000,5.84103515625,-0.027281761169433594,-0.0007804706692695618,0.003355756402015686
1772556876030808600,5.85980859375,-0.022489547729492188,-0.000565841794013977,0.0021974891424179077
1772556876049582300,5.878582275390625,-0.029824256896972656,0.0005634427070617676,-0.00260007381439209
1772556876068355800,5.89735595703125,-0.03341388702392578,0.000665716826915741,0.0009181350469589233
1772556876087129600,5.916129638671875,-0.027281761169433594,-0.0006040856242179871,0.0006407946348190308
1772556876105903000,5.934903076171875,-0.03416633605957031,-0.00010988861322402954,0.006246015429496765
1772556876124676900,5.9536767578125,-0.03895378112792969,-0.00032479315996170044,0.004185527563095093
1772556876143450600,5.97245068359375,-0.03177356719970703,-0.00412268191576004,-0.0018683075904846191
1772556876162224000,5.99122412109375,-0.029379844665527344,0.007881417870521545,0.0023946762084960938
1772556876180998000,6.009997802734375,-0.03297138214111328,-0.001701638102531433,-0.0021611154079437256
1772556876199771400,6.028771484375,-0.025788307189941406,-0.002640165388584137,0.0016171634197235107
1772556876218545200,6.047545166015625,-0.030574798583984375,0.004225403070449829,-0.008295074105262756
1772556876237319000,6.06631884765625,-0.029376983642578125,-0.003855988383293152,-0.0005661249160766602
1772556876256092400,6.085092529296875,-0.032967567443847656,0.0006789565086364746,-0.006759926676750183
1772556876274866200,6.1038662109375,-0.020997047424316406,-0.0015725567936897278,-0.0005825012922286987
1772556876293639700,6.1226396484375,-0.030574798583984375,-0.0016425848007202148,-0.0017537474632263184
1772556876312413400,6.141413330078125,-0.03057384490966797,0.0005917325615882874,-0.0016533732414245605
1772556876331187200,6.160187255859375,-0.024587631225585938,-0.013663388788700104,-0.0014039427042007446
1772556876349960700,6.178960693359375,-0.026983261108398438,-0.0006533712148666382,0.0008238106966018677
1772556876368734500,6.197734375,-0.026981353759765625,0.004286520183086395,-0.00068645179271698
1772556876387508000,6.216508056640625,-0.02817821502685547,0.005723796784877777,0.0016349554061889648
1772556876406281700,6.23528173828125,-0.023390769958496094,-0.00021397322416305542,-0.001725226640701294
1772556876425055500,6.254055419921875,-0.02698230743408203,-0.002761654555797577,-0.005377769470214844
1772556876443829000,6.2728291015625,-0.03296661376953125,-0.003868475556373596,-0.0016849040985107422
1772556876462602800,6.291602783203125,-0.030574798583984375,0.0019530132412910461,-0.004197552800178528
1772556876481376300,6.310376220703125,-0.023392677307128906,-0.0049101486802101135,-0.004317805171012878
1772556876500150000,6.32914990234375,-0.0358123779296875,0.007971309125423431,-0.003279179334640503
1772556876518923500,6.347923583984375,-0.029974937438964844,-0.002805158495903015,-0.0005813539028167725
1772556876537697300,6.366697265625,-0.025186538696289062,-0.0037612169981002808,0.006685569882392883
1772556876556471000,6.385470947265625,-0.0311737060546875,0.003200836479663849,0.00411832332611084
1772556876575244500,6.40424462890625,-0.03356647491455078,0.003148019313812256,0.005440205335617065
1772556876594018300,6.423018310546875,-0.027581214904785156,-0.0005074962973594666,0.0006356090307235718
1772556876612791800,6.441791748046875,-0.03716087341308594,-0.0030172020196914673,-0.0017700642347335815
1772556876631565600,6.460565673828125,-0.03102588653564453,-0.007751107215881348,0.0006454586982727051
1772556876650339300,6.47933935546875,-0.037163734436035156,-0.004216983914375305,-0.0020218268036842346
1772556876669112800,6.49811279296875,-0.02159881591796875,0.0008793845772743225,0.0028574764728546143
1772556876687886600,6.516886474609375,-0.03476428985595703,-0.0026971176266670227,-0.0007466524839401245
1772556876706660000,6.53566015625,-0.035961151123046875,-0.002907000482082367,-0.005426287651062012
1772556876725433900,6.554433837890625,-0.029974937438964844,-0.002817213535308838,-0.00048351287841796875
1772556876744207600,6.57320751953125,-0.03117084503173828,-0.00509653240442276,-0.0003495067358016968
1772556876762981000,6.591981201171875,-0.0263824462890625,0.0008764863014221191,0.0007387101650238037
1772556876781755000,6.6107548828125,-0.03236961364746094,-0.006302505731582642,-0.0028248131275177
1772556876800528400,6.6295283203125,-0.022792816162109375,-0.005049265921115875,-0.0018447339534759521
1772556876819302100,6.64830224609375,-0.027581214904785156,0.006952688097953796,-0.0019106566905975342
1772556876838075600,6.66707568359375,-0.03356647491455078,-0.0001272261142730713,0.0027458518743515015
1772556876856849400,6.685849365234375,-0.02997589111328125,-0.006372556090354919,-0.006774961948394775
1772556876875623200,6.704623046875,-0.032370567321777344,0.003448791801929474,0.00028049200773239136
1772556876894396700,6.723396728515625,-0.028479576110839844,0.0014545321464538574,0.006238311529159546
1772556876913170400,6.74217041015625,-0.029376983642578125,-0.0023292452096939087,-0.003345400094985962
1772556876931944000,6.76094384765625,-0.028181076049804688,-0.004836060106754303,0.001481570303440094
1772556876950717700,6.7797177734375,-0.03177070617675781,0.0004096478223800659,0.006242990493774414
1772556876969491500,6.798491455078125,-0.0341644287109375,0.00015597045421600342,-0.003340579569339752
1772556876988265000,6.817264892578125,-0.020998001098632812,-0.0034459903836250305,0.0012622624635696411
1772556877007038700,6.836038818359375,-0.026983261108398438,-0.0045313164591789246,-0.004728153347969055
1772556877025812200,6.854812255859375,-0.02698230743408203,-0.0021427422761917114,-0.00234396755695343
1772556877044586000,6.8735859375,-0.02818012237548828,0.005072340369224548,-0.004944212734699249
1772556877063359500,6.892359375,-0.030574798583984375,-0.0021467432379722595,0.000014044344425201416
1772556877082133200,6.91113330078125,-0.02937793731689453,0.0024620220065116882,-0.002371653914451599
1772556877100907000,6.929906982421875,-0.02937793731689453,0.0025809183716773987,0.00734391063451767
1772556877119680500,6.948680419921875,-0.02219676971435547,0.0084322988986969,-0.0014980882406234741
1772556877138454300,6.967454345703125,-0.030574798583984375,-0.005777508020401001,-0.004776105284690857
1772556877157227800,6.986227783203125,-0.029374122619628906,0.0027963221073150635,-0.0024666935205459595
1772556877176001500,7.00500146484375,-0.02817535400390625,-0.0040450021624565125,0.008553475141525269
1772556877194775000,7.023775146484375,-0.023387908935546875,0.008836664259433746,-0.005889080464839935
1772556877213548800,7.042548828125,-0.029372215270996094,-0.0042346566915512085,-0.0010017752647399902
1772556877232322600,7.061322509765625,-0.034157752990722656,-0.002681620419025421,0.005088865756988525
1772556877251096000,7.080095947265625,-0.02937030792236328,-0.00046031177043914795,-0.0033368095755577087
1772556877269869800,7.098869873046875,-0.03176593780517578,-0.0017902851104736328,0.0023846328258514404
1772556877288643300,7.117643310546875,-0.03415966033935547,-0.008865304291248322,-0.0011082589626312256
1772556877307417000,7.1364169921875,-0.026978492736816406,-0.001348935067653656,0.0024247542023658752
1772556877326190800,7.15519091796875,-0.02817535400390625,-0.0004757344722747803,-0.0035489797592163086
1772556877344964400,7.17396435546875,-0.02578258514404297,-0.0004632920026779175,-0.002399034798145294
1772556877363738000,7.192738037109375,-0.02817535400390625,0.003358200192451477,-0.00009445846080780029
1772556877382511600,7.21151171875,-0.024583816528320312,0.001200266182422638,0.007168889045715332
1772556877401285400,7.230285400390625,-0.03655815124511719,-0.008851267397403717,-0.0013157576322555542
1772556877420059000,7.249058837890625,-0.028177261352539062,-0.004078119993209839,-0.000059857964515686035
1772556877438832600,7.26783251953125,-0.028179168701171875,0.0030722692608833313,0.0020350441336631775
1772556877457606400,7.2866064453125,-0.03177070617675781,0.0019973665475845337,0.0009320080280303955
1772556877476380000,7.3053798828125,-0.03775501251220703,-0.0016507059335708618,0.0009328275918960571
1772556877495153700,7.324153564453125,-0.02608489990234375,0.0006047263741493225,0.0011399686336517334
1772556877513927200,7.34292724609375,-0.022643089294433594,0.005207493901252747,-0.0013973116874694824
1772556877532701000,7.361700927734375,-0.033417701721191406,0.0015889927744865417,-0.008465364575386047
1772556877551474700,7.380474609375,-0.029676437377929688,0.0003670826554298401,0.0035570859909057617
1772556877570248200,7.399248291015625,-0.029672622680664062,-0.0007407665252685547,0.00013813376426696777
1772556877589022000,7.41802197265625,-0.03221702575683594,0.001568332314491272,-0.0021907538175582886
1772556877607795500,7.43679541015625,-0.0308685302734375,-0.003181062638759613,-0.0021268948912620544
1772556877626569200,7.4555693359375,-0.02952098846435547,-0.004280023276805878,0.004058249294757843
1772556877645343000,7.474343017578125,-0.022485733032226562,-0.001851499080657959,-0.0007613301277160645
1772556877664116500,7.493116455078125,-0.032210350036621094,-0.0006777942180633545,-0.006672501564025879
1772556877682890200,7.51189013671875,-0.025030136108398438,0.005415134131908417,0.0038892924785614014
1772556877701663700,7.530663818359375,-0.023385047912597656,0.002841182053089142,-0.0007447302341461182
1772556877720437500,7.5494375,-0.03655433654785156,0.005144231021404266,0.0015369802713394165
1772556877739211000,7.5682109375,-0.025780677795410156,0.003913991153240204,-0.0021394044160842896
1772556877757984800,7.58698486328125,-0.026976585388183594,-0.0021478161215782166,0.0064919739961624146
1772556877776758300,7.60575830078125,-0.035355567932128906,-0.001998819410800934,0.0028979331254959106
1772556877795532000,7.624531982421875,-0.028171539306640625,0.002759374678134918,-0.0018270313739776611
1772556877814305800,7.643305908203125,-0.03056812286376953,-0.006883367896080017,-0.0031261295080184937
1772556877833079300,7.662079345703125,-0.026978492736816406,0.0004234910011291504,0.00643959641456604
1772556877851853000,7.68085302734375,-0.029371261596679688,-0.0044726356863975525,0.0028455108404159546
1772556877870626600,7.69962646484375,-0.02936840057373047,-0.004130952060222626,0.005454897880554199
1772556877889400300,7.718400390625,-0.029517173767089844,0.007555536925792694,0.0007251501083374023
1772556877908174000,7.737174072265625,-0.028768539428710938,0.006377674639225006,-0.006440773606300354
1772556877926947600,7.755947509765625,-0.03565216064453125,0.00031084567308425903,0.0019383132457733154
1772556877945721300,7.774721435546875,-0.02861785888671875,-0.0007961466908454895,0.0007988959550857544
1772556877964494800,7.793494873046875,-0.03340625762939453,0.00037682056427001953,-0.0015891045331954956
1772556877983268600,7.8122685546875,-0.03236198425292969,0.006212882697582245,-0.0004446953535079956
1772556878002042000,7.8310419921875,-0.028469085693359375,-0.002186596393585205,-0.0027728676795959473
1772556878020816000,7.84981591796875,-0.02382946014404297,0.003934651613235474,-0.0015133172273635864
1772556878039589600,7.868589599609375,-0.03355598449707031,0.002700008451938629,-0.005033448338508606
1772556878058363100,7.887363037109375,-0.023980140686035156,0.002501651644706726,-0.00024172663688659668
1772556878077137000,7.906136962890625,-0.02263164520263672,0.002585001289844513,-0.0025155097246170044
1772556878095910400,7.924910400390625,-0.024873733520507812,0.001360088586807251,-0.000005289912223815918
1772556878114684200,7.94368408203125,-0.026966094970703125,0.0015013888478279114,0.002498924732208252
1772556878133457700,7.962457763671875,-0.02217864990234375,-0.002107977867126465,-0.0022825300693511963
1772556878152231400,7.9812314453125,-0.0365447998046875,0.00020697712898254395,-0.0011370480060577393
1772556878171005200,8.000005126953125,-0.03055858612060547,0.001319386065006256,0.00017645955085754395
1772556878189778700,8.01877880859375,-0.03415107727050781,-0.005762480199337006,0.0000677257776260376
1772556878208552400,8.037552490234376,-0.029359817504882812,0.0038937851786613464,-0.0034003257751464844
1772556878227326000,8.056325927734376,-0.030554771423339844,0.008862748742103577,0.0022844672203063965
1772556878246099700,8.075099609375,-0.03294563293457031,-0.0017613843083381653,0.0003602653741836548
1772556878264873200,8.093873291015624,-0.022171974182128906,0.0032006949186325073,0.0037970244884490967
1772556878283647000,8.11264697265625,-0.02935314178466797,0.003021053969860077,0.00041340291500091553
1772556878302420700,8.131420654296875,-0.02950286865234375,0.006572209298610687,-0.004416942596435547
1772556878321194200,8.1501943359375,-0.02695941925048828,-0.001825779676437378,-0.0007659494876861572
1772556878339968000,8.168968017578125,-0.030550003051757812,0.004124157130718231,-0.0008524507284164429
1772556878358741500,8.187741455078125,-0.030551910400390625,0.0003394782543182373,0.001746848225593567
1772556878377515300,8.206515380859376,-0.030551910400390625,-0.0032320991158485413,0.004191741347312927
1772556878396289000,8.2252890625,-0.01873016357421875,0.0015276595950126648,0.00892646610736847
1772556878415062500,8.2440625,-0.030551910400390625,0.00019296258687973022,0.009115919470787048
1772556878433836300,8.262836181640624,-0.04027843475341797,0.004797063767910004,0.003183320164680481
1772556878452609800,8.28160986328125,-0.026960372924804688,0.0011791586875915527,-0.005181416869163513
1772556878471383600,8.300383544921875,-0.025762557983398438,-0.0035682395100593567,-0.003973022103309631
1772556878490157000,8.319156982421875,-0.027109146118164062,-0.001195564866065979,-0.00026567280292510986
1772556878508930800,8.337930908203125,-0.02875518798828125,-0.00007794052362442017,0.0033767372369766235
1772556878527704300,8.356704345703125,-0.034587860107421875,-0.007156409323215485,0.0035785287618637085
1772556878546478000,8.37547802734375,-0.027555465698242188,0.002390563488006592,0.003480479121208191
1772556878565251800,8.394251953125,-0.02875232696533203,0.0047514066100120544,0.001142054796218872
1772556878584025300,8.413025390625,-0.033538818359375,-0.00005987286567687988,-0.0010781586170196533
1772556878602799000,8.431799072265624,-0.03473377227783203,0.000029325485229492188,0.0061492919921875
1772556878621572600,8.450572509765625,-0.03592967987060547,-0.00471661239862442,0.007333800196647644
1772556878640346400,8.469346435546875,-0.029944419860839844,0.0024361684918403625,0.005044043064117432
1772556878659119900,8.488119873046875,-0.031142234802246094,-0.003564313054084778,0.00622972846031189
1772556878677893600,8.5068935546875,-0.027547836303710938,-0.005856804549694061,0.003998488187789917
1772556878696667400,8.52566748046875,-0.02634906768798828,-0.0021723657846450806,-0.0031174272298812866
1772556878715441000,8.54444091796875,-0.027540206909179688,0.004060082137584686,-0.002994433045387268
1772556878734214700,8.563214599609376,-0.025146484375,0.004345208406448364,0.0028742998838424683
1772556878752988200,8.58198828125,-0.03472328186035156,0.0042176395654678345,-0.004350423812866211
1772556878771762000,8.600761962890624,-0.026343345642089844,-0.001676894724369049,0.006468936800956726
1772556878790535400,8.619535400390625,-0.019161224365234375,0.007854640483856201,0.007700830698013306
1772556878809309200,8.63830908203125,-0.034722328186035156,-0.0016900524497032166,0.00645977258682251
1772556878828082700,8.657082763671875,-0.03232765197753906,-0.0016030743718147278,0.0016951560974121094
1772556878846856400,8.6758564453125,-0.021554946899414062,0.004378475248813629,0.002969995141029358
1772556878865630200,8.694630126953125,-0.027540206909179688,0.00788668543100357,-0.003038451075553894
1772556878884403700,8.71340380859375,-0.035919189453125,0.003119252622127533,0.0005221813917160034
1772556878903177500,8.732177490234376,-0.023651123046875,0.010304883122444153,-0.00090770423412323
1772556878921951000,8.750950927734374,-0.02335071563720703,0.0007529035210609436,0.004048630595207214
1772556878940724700,8.769724853515624,-0.028138160705566406,0.0007227286696434021,-0.0030998587608337402
1772556878959498500,8.78849853515625,-0.03292560577392578,-0.00033396482467651367,0.005294814705848694
1772556878978272000,8.80727197265625,-0.02454662322998047,-0.006222516298294067,0.003947809338569641
1772556878997045800,8.826045654296875,-0.03412437438964844,-0.0026544034481048584,0.0026596635580062866
1772556879015819300,8.8448193359375,-0.024549484252929688,-0.002622947096824646,0.0013192445039749146
1772556879034593000,8.863593017578125,-0.02574920654296875,-0.0013957619667053223,0.004701882600784302
1772556879053366500,8.882366455078126,-0.030538558959960938,-0.0003403276205062866,0.00005404651165008545
1772556879072140300,8.901140380859376,-0.03412628173828125,0.006965517997741699,-0.0024565011262893677
1772556879090914000,8.9199140625,-0.0306854248046875,-0.0024861767888069153,0.008419498801231384
1772556879109687600,8.9386875,-0.02395343780517578,0.002116687595844269,0.003651246428489685
1772556879128461300,8.95746142578125,-0.037123680114746094,0.0007770359516143799,-0.004858627915382385
1772556879147234800,8.97623486328125,-0.037123680114746094,0.001995958387851715,0.00581708550453186
1772556879166008600,8.995008544921875,-0.02754688262939453,-0.002757430076599121,-0.002474188804626465
1772556879184782000,9.013781982421875,-0.031137466430664062,0.004440911114215851,0.0035308897495269775
1772556879203555800,9.032555908203125,-0.034725189208984375,-0.0014568120241165161,0.003661826252937317
1772556879222329600,9.05132958984375,-0.023954391479492188,-0.0003452897071838379,-0.001152142882347107
1772556879241103000,9.07010302734375,-0.03233528137207031,0.0008214116096496582,-0.00009676814079284668
1772556879259876900,9.088876953125,-0.029943466186523438,0.004224628210067749,-0.008598044514656067
1772556879278650400,9.107650390625,-0.02754974365234375,-0.00038680434226989746,-0.002803325653076172
1772556879297424100,9.126424072265625,-0.026355743408203125,-0.001610100269317627,-0.0004926472902297974
1772556879316197600,9.14519775390625,-0.032341957092285156,0.003179393708705902,0.0031180381774902344
1772556879334971400,9.163971435546875,-0.03787517547607422,-0.0076423510909080505,-0.005165398120880127
1772556879353745200,9.1827451171875,-0.03219127655029297,0.0018436238169670105,0.0021894872188568115
1772556879372518700,9.2015185546875,-0.029499053955078125,0.0006096139550209045,-0.0004950612783432007
1772556879391292400,9.22029248046875,-0.03324127197265625,-0.005446776747703552,-0.006551146507263184
1772556879410066000,9.23906591796875,-0.02591228485107422,-0.0044366419315338135,0.0004879087209701538
1772556879428839700,9.257839599609374,-0.03219795227050781,0.006292171776294708,0.006542116403579712
1772556879447613200,9.27661328125,-0.025162696838378906,-0.0008604452013969421,-0.0028883516788482666
1772556879466387000,9.295386962890625,-0.03339195251464844,0.0016678720712661743,-0.004159450531005859
1772556879485160400,9.314160400390625,-0.026208877563476562,-0.0009015798568725586,-0.004067555069923401
1772556879503934200,9.332934326171875,-0.03055095672607422,0.0017492696642875671,0.005356699228286743
1772556879522708000,9.3517080078125,-0.024567604064941406,0.0016590580344200134,0.002871200442314148
1772556879541481500,9.3704814453125,-0.036540985107421875,0.00022726505994796753,0.003917232155799866
1772556879560255200,9.389255126953126,-0.033097267150878906,0.0038925930857658386,0.0002034604549407959
1772556879579028700,9.40802880859375,-0.032947540283203125,0.0004770830273628235,0.004018500447273254
1772556879597802500,9.426802490234374,-0.03533935546875,0.00404869019985199,0.002842247486114502
1772556879616576300,9.445576171875,-0.023369789123535156,0.002759508788585663,0.0065014660358428955
1772556879635349800,9.464349853515625,-0.025762557983398438,-0.001903824508190155,0.0029867440462112427
1772556879654123500,9.48312353515625,-0.03294181823730469,0.001558929681777954,0.0031772106885910034
1772556879672897000,9.50189697265625,-0.030547142028808594,-0.006775818765163422,-0.0015810132026672363
1772556879691670800,9.5206708984375,-0.0283050537109375,0.000375598669052124,0.0007268041372299194
1772556879710444500,9.539444580078126,-0.02875518798828125,0.001426108181476593,-0.0016909241676330566
1772556879729218000,9.558218017578126,-0.03593730926513672,0.0026433393359184265,0.0031180381774902344
1772556879747991800,9.57699169921875,-0.027558326721191406,-0.006947241723537445,0.006609499454498291
1772556879766765300,9.595765380859374,-0.03594017028808594,0.0024809688329696655,-0.0005994588136672974
1772556879785539000,9.6145390625,-0.0323486328125,0.0037524476647377014,0.006594628095626831
1772556879804312600,9.6333125,-0.031149864196777344,-0.0034507960081100464,0.006662413477897644
1772556879823086300,9.65208642578125,-0.029952049255371094,0.0001101866364479065,-0.0027668625116348267
1772556879841859800,9.67085986328125,-0.029952049255371094,0.0025828704237937927,-0.00040183961391448975
1772556879860633600,9.689633544921875,-0.027556419372558594,0.00032889842987060547,-0.0028754323720932007
1772556879879407400,9.708407470703126,-0.027555465698242188,0.001606091856956482,0.0007406771183013916
1772556879898180900,9.727180908203126,-0.03309154510498047,-0.0008144378662109375,0.0019599497318267822
1772556879916954600,9.74595458984375,-0.028604507446289062,0.005427859723567963,0.007897406816482544
1772556879935728000,9.76472802734375,-0.029802322387695312,0.0026988089084625244,-0.0018159598112106323
1772556879954502000,9.783501953125,-0.036835670471191406,-0.0021694302558898926,0.002992674708366394
1772556879973275400,9.802275390625,-0.02845478057861328,-0.0019311532378196716,-0.0005142539739608765
1772556879992049200,9.821049072265625,-0.029801368713378906,0.00039565563201904297,-0.002874046564102173
1772556880010823000,9.839822998046875,-0.02710723876953125,-0.004411168396472931,-0.0005076676607131958
1772556880029596400,9.858596435546875,-0.027555465698242188,0.002790674567222595,-0.008837804198265076
1772556880048370200,9.8773701171875,-0.02845478057861328,0.001561388373374939,-0.0005428791046142578
1772556880067143700,9.896143798828126,-0.03578758239746094,0.0016401484608650208,0.0005684942007064819
1772556880085917400,9.91491748046875,-0.028304100036621094,-0.004308387637138367,0.004289761185646057
1772556880104691200,9.933691162109374,-0.035335540771484375,-0.003019861876964569,-0.0005263984203338623
1772556880123464700,9.952464599609375,-0.02575969696044922,0.005467362701892853,0.001684442162513733
1772556880142238500,9.971238525390625,-0.02336883544921875,0.0018424242734909058,0.0015392005443572998
1772556880161012000,9.990011962890625,-0.036551475524902344,0.007318072021007538,-0.003434404730796814
1772556880179785700,10.00878564453125,-0.0186004638671875,-0.0026329681277275085,-0.002951323986053467
1772556880198559500,10.0275595703125,-0.024578094482421875,-0.003213740885257721,-0.003092333674430847
1772556880217333000,10.0463330078125,-0.032950401306152344,-0.005919724702835083,-0.010348573327064514
1772556880236106800,10.065106689453126,-0.03534126281738281,-0.006794735789299011,0.00039762258529663086
