time,seconds_elapsed,z,y,x
1772556870641763300,0.470763427734375,-0.00015271181473508477,-0.0004581354442052543,-0.0004581354442052543
1772556870669923800,0.498923828125,0.0004581354442052543,0.00015271181473508477,0.0007635590736754239
1772556870688697600,0.517697509765625,0.0004581354442052543,0.00015271181473508477,0.0007635590736754239
1772556870707471400,0.536471435546875,-0.0007635590736754239,-0.0004581354442052543,-0.0004581354442052543
1772556870726244900,0.555244873046875,-0.00015271181473508477,0.00015271181473508477,-0.0004581354442052543
1772556870745018600,0.5740185546875,-0.00015271181473508477,0.00015271181473508477,0.00015271181473508477
1772556870763792100,0.592792236328125,-0.00015271181473508477,-0.0010689827613532543,-0.0010689827613532543
1772556870782566000,0.61156591796875,-0.00015271181473508477,0.001374406274408102,0.00015271181473508477
1772556870801339600,0.630339599609375,-0.00015271181473508477,0.0007635590736754239,0.00015271181473508477
1772556870820113200,0.649113037109375,0.0004581354442052543,0.001374406274408102,0.00015271181473508477
1772556870838887000,0.667886962890625,0.0010689827613532543,0.0007635590736754239,0.0007635590736754239
1772556870857660400,0.686660400390625,0.0004581354442052543,-0.0010689827613532543,-0.0010689827613532543
1772556870876434200,0.70543408203125,-0.00015271181473508477,0.00015271181473508477,0.00015271181473508477
1772556870895208000,0.7242080078125,-0.00015271181473508477,-0.0004581354442052543,-0.0010689827613532543
1772556870913981400,0.7429814453125,0.0004581354442052543,0.00015271181473508477,-0.0004581354442052543
1772556870932755200,0.761755126953125,0.0004581354442052543,0.0007635590736754239,-0.0010689827613532543
1772556870951528700,0.78052880859375,-0.00015271181473508477,-0.0004581354442052543,0.0007635590736754239
1772556870970302500,0.799302490234375,0.0004581354442052543,0.0007635590736754239,-0.0004581354442052543
1772556870989076000,0.818075927734375,-0.00015271181473508477,0.00015271181473508477,-0.0004581354442052543
1772556871007849700,0.836849609375,0.0010689827613532543,0.0007635590736754239,-0.0004581354442052543
1772556871026623500,0.85562353515625,-0.00015271181473508477,0.00015271181473508477,0.001374406274408102
1772556871045397000,0.87439697265625,-0.00015271181473508477,-0.0010689827613532543,-0.0004581354442052543
1772556871064170800,0.893170654296875,0.0010689827613532543,0.0007635590736754239,0.001374406274408102
1772556871082944300,0.9119443359375,0.0010689827613532543,0.0007635590736754239,0.0007635590736754239
1772556871101718000,0.930718017578125,0.0004581354442052543,-0.0004581354442052543,0.0007635590736754239
1772556871120491800,0.94949169921875,-0.0007635590736754239,-0.0010689827613532543,0.00015271181473508477
1772556871139265300,0.968265380859375,0.0016798300202935934,0.00015271181473508477,-0.0004581354442052543
1772556871158039000,0.9870390625,0.0004581354442052543,0.00015271181473508477,-0.0004581354442052543
1772556871176812500,1.0058125,0.0010689827613532543,0.00015271181473508477,-0.0010689827613532543
1772556871195586300,1.02458642578125,-0.00015271181473508477,0.00015271181473508477,-0.0004581354442052543
1772556871214360000,1.043360107421875,-0.00015271181473508477,0.00015271181473508477,0.00015271181473508477
1772556871233133600,1.062133544921875,0.0004581354442052543,0.00015271181473508477,0.00015271181473508477
1772556871251907300,1.0809072265625,-0.00015271181473508477,0.00015271181473508477,0.00015271181473508477
1772556871270680800,1.099680908203125,0.0004581354442052543,0.00015271181473508477,0.0007635590736754239
1772556871289454600,1.11845458984375,-0.00015271181473508477,0.00015271181473508477,0.00015271181473508477
1772556871308228400,1.137228271484375,-0.00015271181473508477,-0.0004581354442052543,0.0007635590736754239
1772556871327001900,1.156001953125,-0.00015271181473508477,0.00015271181473508477,0.0007635590736754239
1772556871345775600,1.174775634765625,-0.00015271181473508477,0.00015271181473508477,0.001374406274408102
1772556871364549000,1.193549072265625,0.0004581354442052543,0.0007635590736754239,-0.0004581354442052543
1772556871383323000,1.212322998046875,-0.00015271181473508477,0.0007635590736754239,0.00015271181473508477
1772556871402096400,1.231096435546875,0.0010689827613532543,0.00015271181473508477,0.00015271181473508477
1772556871420870100,1.2498701171875,-0.00015271181473508477,-0.0004581354442052543,0.0007635590736754239
1772556871439644000,1.268643798828125,0.0004581354442052543,-0.0004581354442052543,0.00015271181473508477
1772556871458417400,1.28741748046875,0.0004581354442052543,-0.0004581354442052543,0.00015271181473508477
1772556871477191200,1.306191162109375,-0.00015271181473508477,-0.0004581354442052543,-0.0004581354442052543
1772556871495964700,1.324964599609375,0.0004581354442052543,-0.0004581354442052543,0.00015271181473508477
1772556871514738400,1.343738525390625,0.0004581354442052543,-0.0004581354442052543,-0.0016798300202935934
1772556871533512200,1.36251220703125,-0.00015271181473508477,-0.0010689827613532543,0.0007635590736754239
1772556871552285700,1.38128564453125,-0.00015271181473508477,-0.0010689827613532543,0.00015271181473508477
1772556871571059500,1.4000595703125,-0.00015271181473508477,-0.0004581354442052543,0.00015271181473508477
1772556871589833000,1.4188330078125,-0.0007635590736754239,-0.0004581354442052543,-0.0004581354442052543
1772556871608606700,1.437606689453125,-0.00015271181473508477,0.00015271181473508477,0.0007635590736754239
1772556871627380500,1.45638037109375,-0.0007635590736754239,0.0007635590736754239,0.0007635590736754239
1772556871646154000,1.475154052734375,0.0010689827613532543,0.00015271181473508477,0.0007635590736754239
1772556871664927700,1.493927734375,-0.00015271181473508477,0.00015271181473508477,0.0007635590736754239
1772556871683701200,1.512701171875,-0.0007635590736754239,0.00015271181473508477,0.00015271181473508477
1772556871702475000,1.53147509765625,-0.00015271181473508477,0.00015271181473508477,0.00015271181473508477
1772556871721248800,1.550248779296875,0.0004581354442052543,-0.0004581354442052543,0.00015271181473508477
1772556871740022300,1.569022216796875,-0.0007635590736754239,-0.0004581354442052543,0.00015271181473508477
1772556871758796000,1.587796142578125,0.0010689827613532543,0.0007635590736754239,0.0007635590736754239
1772556871777569500,1.606569580078125,0.0004581354442052543,-0.0004581354442052543,0.00015271181473508477
1772556871796343300,1.62534326171875,0.0004581354442052543,0.0007635590736754239,-0.0010689827613532543
1772556871815116800,1.64411669921875,0.00030542362947016954,0.00015271181473508477,-0.0006108472589403391
1772556871833890600,1.662890625,-0.00030542362947016954,-0.0010689827613532543,0
1772556871852664300,1.681664306640625,0.00030542362947016954,-0.0010689827613532543,0
1772556871871437800,1.700437744140625,-0.0009162708884105086,-0.0004581354442052543,0
1772556871890211600,1.719211669921875,0.0009162708884105086,0.00015271181473508477,0
1772556871908985000,1.737985107421875,-0.00030542362947016954,0.0007635590736754239,0
1772556871927758800,1.7567587890625,0.00030542362947016954,-0.0004581354442052543,0
1772556871946532600,1.77553271484375,0.00030542362947016954,0.00015271181473508477,0
1772556871965306000,1.79430615234375,0.0009162708884105086,0.00015271181473508477,0
1772556871984080000,1.813079833984375,0.00030542362947016954,-0.0004581354442052543,-0.0006108472589403391
1772556872002853400,1.831853271484375,-0.00030542362947016954,-0.0004581354442052543,0
1772556872021627100,1.850627197265625,0.00030542362947016954,0.0007635590736754239,-0.0006108472589403391
1772556872040401000,1.86940087890625,0.00030542362947016954,0.0007635590736754239,0
1772556872059174400,1.88817431640625,-0.00030542362947016954,0.00015271181473508477,0.0006108472589403391
1772556872077948200,1.9069482421875,-0.00030542362947016954,0.00015271181473508477,0
1772556872096721700,1.9257216796875,-0.0009162708884105086,-0.0004581354442052543,0.0006108472589403391
1772556872115495400,1.944495361328125,0.00030542362947016954,-0.0004581354442052543,0.0012216945178806782
1772556872134269200,1.963269287109375,-0.00030542362947016954,-0.0004581354442052543,0
1772556872153042700,1.982042724609375,-0.00030542362947016954,0.00015271181473508477,0.0006108472589403391
1772556872171816400,2.00081640625,0.00030542362947016954,-0.0004581354442052543,0.0006108472589403391
1772556872190590000,2.01958984375,-0.00030542362947016954,0.00015271181473508477,0.0006108472589403391
1772556872209363700,2.03836376953125,0.0009162708884105086,-0.0004581354442052543,-0.0006108472589403391
1772556872228137500,2.057137451171875,0.0009162708884105086,-0.0004581354442052543,0.0006108472589403391
1772556872246911000,2.075910888671875,-0.00030542362947016954,-0.0010689827613532543,0
1772556872265684700,2.094684814453125,0.00030542362947016954,-0.0004581354442052543,0
1772556872284458200,2.113458251953125,-0.00030542362947016954,0.00015271181473508477,-0.0012216945178806782
1772556872303232000,2.13223193359375,-0.00030542362947016954,0.00015271181473508477,-0.0006108472589403391
1772556872322005800,2.151005859375,-0.00030542362947016954,-0.0004581354442052543,0
1772556872340779300,2.169779296875,0.00030542362947016954,0.00015271181473508477,-0.0006108472589403391
1772556872359553000,2.188552978515625,-0.00030542362947016954,0.00015271181473508477,0
1772556872378326500,2.207326416015625,0.00030542362947016954,-0.0004581354442052543,-0.0006108472589403391
1772556872397100300,2.226100341796875,-0.00030542362947016954,0.0007635590736754239,0
1772556872415873800,2.244873779296875,-0.00030542362947016954,0.00015271181473508477,0
1772556872434647600,2.2636474609375,-0.00030542362947016954,0.00015271181473508477,-0.0006108472589403391
1772556872453421300,2.28242138671875,0.0009162708884105086,0.0007635590736754239,-0.0006108472589403391
1772556872472194800,2.30119482421875,0.00030542362947016954,-0.0004581354442052543,-0.0018325417768210173
1772556872490968600,2.319968505859375,-0.00030542362947016954,-0.0010689827613532543,0
1772556872509742000,2.3387421875,0.00030542362947016954,-0.0010689827613532543,-0.0006108472589403391
1772556872528515800,2.357515869140625,-0.00030542362947016954,0.0007635590736754239,0.0006108472589403391
1772556872547289600,2.37628955078125,0.00030542362947016954,0.00015271181473508477,0.0006108472589403391
1772556872566063000,2.39506298828125,0.0015271181473508477,-0.0004581354442052543,-0.0006108472589403391
1772556872584836900,2.4138369140625,0.00030542362947016954,-0.0004581354442052543,0.0006108472589403391
1772556872603610400,2.4326103515625,-0.00030542362947016954,-0.0004581354442052543,0.0006108472589403391
1772556872622384000,2.451384033203125,-0.00030542362947016954,0.00015271181473508477,0
1772556872641158000,2.470157958984375,-0.00030542362947016954,-0.0010689827613532543,0
1772556872659931400,2.488931396484375,-0.00030542362947016954,0.0007635590736754239,0.0006108472589403391
1772556872678705200,2.507705078125,0.00030542362947016954,-0.0010689827613532543,-0.0012216945178806782
1772556872697478700,2.526478759765625,-0.00030542362947016954,0.00015271181473508477,-0.0018325417768210173
1772556872716252400,2.54525244140625,-0.0009162708884105086,-0.0010689827613532543,0.0012216945178806782
1772556872735026200,2.564026123046875,0.0015271181473508477,0.0007635590736754239,0.0006108472589403391
1772556872753799700,2.582799560546875,-0.00030542362947016954,0.001374406274408102,0
1772556872772573400,2.601573486328125,-0.0009162708884105086,0.00015271181473508477,-0.0006108472589403391
1772556872791347000,2.620346923828125,-0.0009162708884105086,-0.0004581354442052543,0
1772556872810120700,2.63912060546875,0.00030542362947016954,0.00015271181473508477,0
1772556872828894500,2.65789453125,0.00030542362947016954,-0.0004581354442052543,-0.0006108472589403391
1772556872847668000,2.67666796875,-0.00030542362947016954,-0.0004581354442052543,-0.0012216945178806782
1772556872866441700,2.695441650390625,0.00030542362947016954,0.00015271181473508477,-0.0018325417768210173
1772556872885215200,2.71421533203125,0.00030542362947016954,-0.0004581354442052543,0
1772556872903989000,2.732989013671875,-0.00030542362947016954,0.00015271181473508477,0
1772556872922762800,2.7517626953125,-0.00030542362947016954,0.00015271181473508477,-0.0012216945178806782
1772556872941536300,2.770536376953125,0.00030542362947016954,-0.0004581354442052543,-0.0012216945178806782
1772556872960310000,2.78931005859375,0.0009162708884105086,0.001374406274408102,-0.0012216945178806782
1772556872979083500,2.80808349609375,-0.0009162708884105086,0.00015271181473508477,-0.0006108472589403391
1772556872997857300,2.826857177734375,0.00030542362947016954,-0.0004581354442052543,-0.0012216945178806782
1772556873016631000,2.845631103515625,0.00030542362947016954,-0.0010689827613532543,0
1772556873035404500,2.864404541015625,-0.00030542362947016954,0.00015271181473508477,0.0006108472589403391
1772556873054178300,2.88317822265625,0.00030542362947016954,-0.0010689827613532543,0
1772556873072951800,2.901951904296875,0.00030542362947016954,-0.0004581354442052543,-0.0018325417768210173
1772556873091725600,2.9207255859375,0.0009162708884105086,0.00015271181473508477,-0.0006108472589403391
1772556873110499300,2.939499267578125,0.00030542362947016954,-0.0004581354442052543,0.0018325417768210173
1772556873129272800,2.95827294921875,0.00030542362947016954,-0.0010689827613532543,0
1772556873148046600,2.977046630859375,-0.00030542362947016954,-0.0004581354442052543,0
1772556873166820000,2.995820068359375,-0.00030542362947016954,0.0007635590736754239,-0.0012216945178806782
1772556873185593900,3.01459375,-0.00030542362947016954,-0.0004581354442052543,0.0006108472589403391
1772556873204367600,3.03336767578125,0.00030542362947016954,0.00015271181473508477,0
1772556873223141000,3.05214111328125,-0.00030542362947016954,0.00015271181473508477,0
1772556873241915000,3.070914794921875,-0.0009162708884105086,-0.0010689827613532543,-0.0006108472589403391
1772556873260688400,3.0896884765625,-0.00030542362947016954,-0.0004581354442052543,0
1772556873279462100,3.108462158203125,-0.0015271181473508477,0.00015271181473508477,0.0006108472589403391
1772556873298236000,3.12723583984375,0.0009162708884105086,0.00015271181473508477,0.0012216945178806782
1772556873317009400,3.146009521484375,0.0009162708884105086,0.00015271181473508477,0.0006108472589403391
1772556873335783200,3.164783203125,0.00030542362947016954,-0.0010689827613532543,0.0006108472589403391
1772556873354556700,3.183556640625,-0.00030542362947016954,-0.0010689827613532543,0
1772556873373330400,3.202330322265625,0.00030542362947016954,0.00015271181473508477,0.0006108472589403391
1772556873392104000,3.22110400390625,0.00030542362947016954,-0.0004581354442052543,0
1772556873410877700,3.239877685546875,0.00030542362947016954,0.00015271181473508477,0.0006108472589403391
1772556873429651500,3.2586513671875,0.00030542362947016954,0.0007635590736754239,0.0006108472589403391
1772556873448425000,3.277425048828125,0.00030542362947016954,0.00015271181473508477,-0.0006108472589403391
1772556873467198700,3.29619873046875,0.00030542362947016954,-0.0004581354442052543,-0.0006108472589403391
1772556873485972200,3.31497216796875,0.00030542362947016954,0.001374406274408102,0
1772556873504746000,3.33374609375,-0.00030542362947016954,0.00015271181473508477,-0.0006108472589403391
1772556873523519700,3.352519775390625,0.00030542362947016954,0.00015271181473508477,0
1772556873542293200,3.371293212890625,0.00030542362947016954,0.0007635590736754239,0
1772556873561067000,3.39006689453125,0.00030542362947016954,0.00030542362947016954,-0.0010689827613532543
1772556873579840500,3.408840576171875,-0.00030542362947016954,-0.00030542362947016954,0.0007635590736754239
1772556873598614300,3.4276142578125,-0.00030542362947016954,0.00030542362947016954,0.00015271181473508477
1772556873617388000,3.446387939453125,-0.0009162708884105086,0.00030542362947016954,0.00015271181473508477
1772556873636161500,3.46516162109375,-0.00030542362947016954,0.0009162708884105086,-0.0004581354442052543
1772556873654935300,3.483935302734375,0.00030542362947016954,-0.0009162708884105086,-0.0010689827613532543
1772556873673708800,3.502708740234375,0.00030542362947016954,0.0009162708884105086,-0.0004581354442052543
1772556873692482600,3.521482666015625,-0.00030542362947016954,-0.0009162708884105086,0.0007635590736754239
1772556873711256300,3.54025634765625,0.0015271181473508477,0.00030542362947016954,-0.0004581354442052543
1772556873730029800,3.55902978515625,-0.00030542362947016954,-0.00030542362947016954,0.0007635590736754239
1772556873748803600,3.577803466796875,-0.00030542362947016954,0.00030542362947016954,0.0007635590736754239
1772556873767577000,3.5965771484375,0.00030542362947016954,0.0015271181473508477,0.001374406274408102
1772556873786350800,3.615350830078125,0.0009162708884105086,0.0009162708884105086,0.0007635590736754239
1772556873805124400,3.634124267578125,-0.00030542362947016954,0.00030542362947016954,-0.0016798300202935934
1772556873823898000,3.652898193359375,0.0009162708884105086,-0.00030542362947016954,0.00015271181473508477
1772556873842671900,3.671671875,-0.00030542362947016954,-0.00030542362947016954,0.00015271181473508477
1772556873861445400,3.6904453125,-0.0015271181473508477,0.00030542362947016954,0.0007635590736754239
1772556873880219100,3.70921923828125,-0.00030542362947016954,0.00030542362947016954,0.00015271181473508477
1772556873898992600,3.72799267578125,0.00030542362947016954,0.00030542362947016954,0.00015271181473508477
1772556873917766400,3.746766357421875,0.00030542362947016954,0.00030542362947016954,0.0007635590736754239
1772556873936540200,3.7655400390625,-0.00030542362947016954,-0.00030542362947016954,-0.0004581354442052543
1772556873955313700,3.784313720703125,0.0009162708884105086,0.00030542362947016954,0.00015271181473508477
1772556873974087400,3.80308740234375,0.00030542362947016954,0.00030542362947016954,-0.0004581354442052543
1772556873992861000,3.82186083984375,0.00030542362947016954,-0.00030542362947016954,0.00015271181473508477
1772556874011634700,3.840634765625,-0.00030542362947016954,-0.00030542362947016954,0.0007635590736754239
1772556874030408400,3.859408447265625,0.0009162708884105086,0.0009162708884105086,0.00015271181473508477
1772556874049182000,3.878181884765625,0.0015271181473508477,-0.0015271181473508477,-0.0004581354442052543
1772556874067955700,3.896955810546875,-0.00030542362947016954,0.00030542362947016954,0.00015271181473508477
1772556874086729200,3.915729248046875,-0.00030542362947016954,-0.00030542362947016954,-0.0004581354442052543
1772556874105503000,3.9345029296875,-0.00030542362947016954,-0.0009162708884105086,-0.0004581354442052543
1772556874124276700,3.95327685546875,-0.00030542362947016954,0.00030542362947016954,-0.0004581354442052543
1772556874143050200,3.97205029296875,0.0009162708884105086,-0.00030542362947016954,-0.0004581354442052543
1772556874161824000,3.990823974609375,0.00030542362947016954,-0.00030542362947016954,0.0007635590736754239
1772556874180597800,4.00959765625,0.00030542362947016954,0.00030542362947016954,0.00015271181473508477
1772556874199371300,4.028371337890625,0.00030542362947016954,0.00030542362947016954,-0.0004581354442052543
1772556874218145000,4.04714501953125,0.00030542362947016954,0.00030542362947016954,-0.0004581354442052543
1772556874236918500,4.06591845703125,0.00030542362947016954,-0.00030542362947016954,0.00015271181473508477
1772556874255692300,4.0846923828125,-0.00030542362947016954,0.00030542362947016954,0.00015271181473508477
1772556874274466000,4.103466064453125,0.00030542362947016954,0.00030542362947016954,-0.0004581354442052543
1772556874293239600,4.122239501953125,0.0009162708884105086,0.0009162708884105086,0.00015271181473508477
1772556874312013300,4.141013427734375,0.00030542362947016954,-0.00030542362947016954,0.00015271181473508477
1772556874330786800,4.159786865234375,0.00030542362947016954,0.00030542362947016954,0.00015271181473508477
1772556874349560600,4.178560546875,-0.00030542362947016954,0.00030542362947016954,0.00015271181473508477
1772556874368334300,4.197334228515625,0.00030542362947016954,-0.0009162708884105086,0.00015271181473508477
1772556874387107800,4.21610791015625,0.0009162708884105086,-0.00030542362947016954,0.00015271181473508477
1772556874405881600,4.234881591796875,0.00030542362947016954,-0.00030542362947016954,-0.0004581354442052543
1772556874424655000,4.253655029296875,0.00030542362947016954,-0.00030542362947016954,0.00015271181473508477
1772556874443428900,4.272428955078125,0.0009162708884105086,-0.0009162708884105086,0.00015271181473508477
1772556874462202600,4.29120263671875,-0.0009162708884105086,0.00030542362947016954,0.0007635590736754239
1772556874480976100,4.30997607421875,-0.00030542362947016954,-0.00030542362947016954,0.00015271181473508477
1772556874499750000,4.32875,0.00030542362947016954,0.0009162708884105086,-0.0004581354442052543
1772556874518523400,4.3475234375,-0.00030542362947016954,0.00030542362947016954,0.00015271181473508477
1772556874537297200,4.366297119140625,-0.00030542362947016954,0.0009162708884105086,-0.0004581354442052543
1772556874556070700,4.385070556640625,0.00030542362947016954,0.00030542362947016954,0.0007635590736754239
1772556874574844400,4.403844482421875,0.00030542362947016954,0.00030542362947016954,0.00015271181473508477
1772556874593618200,4.4226181640625,0.00030542362947016954,0.00030542362947016954,0.00015271181473508477
1772556874612391700,4.4413916015625,0.00030542362947016954,0.0021379655227065086,-0.0004581354442052543
1772556874631165400,4.46016552734375,-0.00030542362947016954,0.00030542362947016954,0.00015271181473508477
1772556874649939000,4.47893896484375,0.00030542362947016954,0.00030542362947016954,0.0007635590736754239
1772556874668712700,4.497712646484375,0.0009162708884105086,-0.00030542362947016954,0.00015271181473508477
1772556874687486500,4.516486572265625,-0.00030542362947016954,0.00030542362947016954,-0.0004581354442052543
1772556874706260000,4.535260009765625,-0.00030542362947016954,-0.00030542362947016954,-0.0004581354442052543
1772556874725033700,4.55403369140625,0.00030542362947016954,0.00030542362947016954,-0.0010689827613532543
1772556874743807200,4.57280712890625,-0.00030542362947016954,0.0009162708884105086,0.0007635590736754239
1772556874762581000,4.5915810546875,-0.00030542362947016954,0.00030542362947016954,0.0007635590736754239
1772556874781354800,4.610354736328125,-0.00030542362947016954,0.0009162708884105086,-0.0004581354442052543
1772556874800128300,4.629128173828125,-0.00030542362947016954,0.00030542362947016954,0.0007635590736754239
1772556874818902000,4.647902099609375,-0.0009162708884105086,0.00030542362947016954,0.00015271181473508477
1772556874837675500,4.666675537109375,-0.00030542362947016954,-0.0009162708884105086,0.00015271181473508477
1772556874856449300,4.68544921875,0.0009162708884105086,-0.0009162708884105086,-0.0004581354442052543
1772556874875223000,4.70422314453125,0.0009162708884105086,-0.0009162708884105086,0.0007635590736754239
1772556874893996500,4.72299658203125,0.00030542362947016954,0.00030542362947016954,-0.0004581354442052543
1772556874912770300,4.741770263671875,0.00030542362947016954,0.0009162708884105086,-0.0004581354442052543
1772556874931543800,4.760543701171875,-0.00030542362947016954,-0.0009162708884105086,0.00015271181473508477
1772556874950317600,4.779317626953125,0.00030542362947016954,-0.00030542362947016954,0.0007635590736754239
1772556874969091300,4.79809130859375,0.00030542362947016954,-0.00030542362947016954,0.0007635590736754239
1772556874987864800,4.81686474609375,-0.00030542362947016954,0.00030542362947016954,0.00015271181473508477
1772556875006638600,4.835638671875,-0.00030542362947016954,-0.00030542362947016954,0.00015271181473508477
1772556875025412400,4.854412353515625,-0.00030542362947016954,0.00030542362947016954,0.0007635590736754239
1772556875044185900,4.873185791015625,-0.00030542362947016954,-0.0009162708884105086,0.00015271181473508477
1772556875062959600,4.891959716796875,-0.00030542362947016954,-0.00030542362947016954,-0.0004581354442052543
1772556875081733000,4.910733154296875,0.00030542362947016954,-0.00030542362947016954,0.001374406274408102
1772556875100507000,4.9295068359375,-0.00030542362947016954,-0.00030542362947016954,0.00015271181473508477
1772556875119280600,4.94828076171875,-0.0009162708884105086,-0.0009162708884105086,-0.0010689827613532543
1772556875138054100,4.96705419921875,-0.00030542362947016954,-0.00030542362947016954,-0.0004581354442052543
1772556875156828000,4.985827880859375,-0.00030542362947016954,0.0009162708884105086,0.00015271181473508477
1772556875175601400,5.004601318359375,-0.00030542362947016954,0.00030542362947016954,0.0007635590736754239
1772556875194375200,5.023375244140625,-0.00030542362947016954,0.0009162708884105086,-0.0004581354442052543
1772556875213148700,5.042148681640625,-0.0009162708884105086,0.00030542362947016954,0.00015271181473508477
1772556875231922400,5.06092236328125,-0.00030542362947016954,-0.00030542362947016954,0.00015271181473508477
1772556875250696200,5.0796962890625,-0.00030542362947016954,0.00030542362947016954,0.00015271181473508477
1772556875269469700,5.0984697265625,-0.00030542362947016954,0.00030542362947016954,0.00015271181473508477
1772556875288243500,5.117243408203125,-0.0009162708884105086,0.00030542362947016954,0.00015271181473508477
1772556875307017000,5.136016845703125,0.00030542362947016954,0.00015271181473508477,-0.0006108472589403391
1772556875325790700,5.154790771484375,0.00030542362947016954,0.00015271181473508477,0
1772556875344564500,5.173564453125,0.00030542362947016954,0.00015271181473508477,0.0006108472589403391
1772556875363338000,5.192337890625,-0.00030542362947016954,0.00015271181473508477,0
1772556875382111700,5.21111181640625,0.00030542362947016954,-0.0004581354442052543,0
1772556875400885200,5.22988525390625,-0.00030542362947016954,-0.0004581354442052543,0.0006108472589403391
1772556875419659000,5.248658935546875,0.00030542362947016954,0.00015271181473508477,-0.0006108472589403391
1772556875438432800,5.267432861328125,0.00030542362947016954,-0.0004581354442052543,0
1772556875457206300,5.286206298828125,0.0009162708884105086,0.0007635590736754239,0
1772556875475980000,5.30497998046875,-0.00030542362947016954,0.00015271181473508477,0
1772556875494753500,5.32375341796875,-0.00030542362947016954,-0.0010689827613532543,-0.0006108472589403391
1772556875513527300,5.34252734375,-0.00030542362947016954,0.00015271181473508477,-0.0006108472589403391
1772556875532301000,5.361301025390625,0.00030542362947016954,-0.0004581354442052543,0
1772556875551074600,5.380074462890625,0.00030542362947016954,0.00015271181473508477,0.0006108472589403391
1772556875569848300,5.398848388671875,0.0009162708884105086,0.00015271181473508477,0
1772556875588621800,5.417621826171875,-0.0009162708884105086,-0.0004581354442052543,0.0006108472589403391
1772556875607395600,5.4363955078125,0.00030542362947016954,0.00015271181473508477,0.0006108472589403391
1772556875626169300,5.45516943359375,-0.00030542362947016954,-0.0010689827613532543,0
1772556875644942800,5.47394287109375,0.00030542362947016954,0.00015271181473508477,0.0012216945178806782
1772556875663716600,5.492716552734375,0.00030542362947016954,0.00015271181473508477,-0.0012216945178806782
1772556875682490000,5.511489990234375,-0.0009162708884105086,0.00015271181473508477,0
1772556875701264000,5.530263916015625,-0.00030542362947016954,-0.0004581354442052543,-0.0006108472589403391
1772556875720037600,5.54903759765625,0.00030542362947016954,0.00015271181473508477,0
1772556875738811100,5.56781103515625,-0.00030542362947016954,0.001374406274408102,0.0006108472589403391
1772556875757585000,5.5865849609375,-0.00030542362947016954,-0.0004581354442052543,-0.0012216945178806782
1772556875776358400,5.6053583984375,-0.00030542362947016954,0.00015271181473508477,-0.0018325417768210173
1772556875795132200,5.624132080078125,0.00030542362947016954,-0.0004581354442052543,0
1772556875813906000,5.642906005859375,0.00030542362947016954,-0.0010689827613532543,0
1772556875832679400,5.661679443359375,0.0009162708884105086,-0.0004581354442052543,-0.0012216945178806782
1772556875851453200,5.680453125,-0.00030542362947016954,0.00015271181473508477,-0.0006108472589403391
1772556875870226700,5.699226806640625,-0.00030542362947016954,0.00015271181473508477,0
1772556875889000400,5.71800048828125,0.00030542362947016954,-0.0016798300202935934,0
1772556875907774200,5.736774169921875,-0.00030542362947016954,0.0007635590736754239,0
1772556875926547700,5.755547607421875,-0.00030542362947016954,-0.0010689827613532543,0
1772556875945321500,5.774321533203125,-0.00030542362947016954,-0.0004581354442052543,0
1772556875964095000,5.793094970703125,-0.00030542362947016954,-0.0004581354442052543,0.0006108472589403391
1772556875982868700,5.81186865234375,-0.0009162708884105086,0.0007635590736754239,0
1772556876001642500,5.830642578125,-0.00030542362947016954,-0.0010689827613532543,0
1772556876020416000,5.849416015625,0.00030542362947016954,-0.0016798300202935934,-0.0018325417768210173
1772556876039189800,5.868189697265625,-0.00030542362947016954,0.0007635590736754239,-0.0012216945178806782
1772556876057963300,5.88696337890625,-0.00030542362947016954,-0.0010689827613532543,0
1772556876076737000,5.905737060546875,0.00030542362947016954,0.00015271181473508477,0
1772556876095510800,5.9245107421875,-0.00030542362947016954,-0.0010689827613532543,0.0006108472589403391
1772556876114284300,5.9432841796875,0.0009162708884105086,-0.0004581354442052543,0
1772556876133058000,5.96205810546875,-0.00030542362947016954,-0.0004581354442052543,0.0012216945178806782
1772556876151831600,5.98083154296875,-0.0009162708884105086,0.00015271181473508477,0
1772556876170605300,5.999605224609375,-0.0009162708884105086,0.00015271181473508477,-0.0006108472589403391
1772556876189379000,6.018379150390625,0.0009162708884105086,-0.0010689827613532543,0
1772556876208152600,6.037152587890625,-0.00030542362947016954,0.00015271181473508477,-0.0006108472589403391
1772556876226926300,6.05592626953125,-0.00030542362947016954,0.001374406274408102,0
1772556876245699800,6.074699951171875,-0.00030542362947016954,-0.0004581354442052543,0
1772556876264473600,6.0934736328125,0.00030542362947016954,0.00015271181473508477,0
1772556876283247400,6.112247314453125,-0.00030542362947016954,0.00015271181473508477,0
1772556876302020900,6.131020751953125,-0.00030542362947016954,0.00015271181473508477,0.0006108472589403391
1772556876320794600,6.149794677734375,0.00030542362947016954,0.0007635590736754239,0
1772556876339568000,6.168568115234375,-0.0009162708884105086,-0.0004581354442052543,0.0006108472589403391
1772556876358342000,6.187341796875,-0.00030542362947016954,0.00015271181473508477,0
1772556876377115400,6.206115478515625,0.00030542362947016954,-0.0004581354442052543,-0.0012216945178806782
1772556876395889200,6.22488916015625,-0.00030542362947016954,-0.0004581354442052543,0
1772556876414663000,6.243662841796875,-0.00030542362947016954,-0.0004581354442052543,0
1772556876433436400,6.2624365234375,-0.00030542362947016954,0.00015271181473508477,0
1772556876452210200,6.281210205078125,0.0009162708884105086,-0.0004581354442052543,0.0006108472589403391
1772556876470983700,6.299983642578125,-0.00030542362947016954,-0.0010689827613532543,-0.0012216945178806782
1772556876489757400,6.31875732421875,-0.00030542362947016954,-0.0010689827613532543,-0.0012216945178806782
1772556876508531200,6.33753125,-0.00030542362947016954,0.0007635590736754239,0.0006108472589403391
1772556876527304700,6.3563046875,-0.0009162708884105086,0.00015271181473508477,0
1772556876546078500,6.375078369140625,-0.0009162708884105086,-0.0004581354442052543,-0.0006108472589403391
1772556876564852000,6.39385205078125,-0.00030542362947016954,0.00015271181473508477,0
1772556876583625700,6.412625732421875,-0.00030542362947016954,-0.0004581354442052543,0.0006108472589403391
1772556876602399500,6.4313994140625,-0.00030542362947016954,0.00015271181473508477,0
1772556876621173000,6.450173095703125,-0.00030542362947016954,-0.0004581354442052543,0.0006108472589403391
1772556876639946800,6.46894677734375,0.0009162708884105086,-0.0010689827613532543,0.0007635590736754239
1772556876658720300,6.48772021484375,-0.0009162708884105086,-0.0004581354442052543,-0.0006108472589403391
1772556876677494000,6.506493896484375,-0.00030542362947016954,0.00015271181473508477,0
1772556876696267800,6.525267822265625,-0.00030542362947016954,0.0007635590736754239,-0.0006108472589403391
1772556876715041300,6.544041259765625,0.00030542362947016954,0.00015271181473508477,0.0006108472589403391
1772556876733815000,6.56281494140625,-0.00030542362947016954,0.00015271181473508477,0
1772556876752588500,6.581588623046875,0.00030542362947016954,0.00015271181473508477,-0.0012216945178806782
1772556876771362300,6.6003623046875,-0.00030542362947016954,-0.0004581354442052543,0
1772556876790135800,6.6191357421875,-0.00030542362947016954,0.00015271181473508477,0
1772556876808909600,6.63790966796875,0.0009162708884105086,-0.0010689827613532543,-0.0006108472589403391
1772556876827683300,6.656683349609375,0.00030542362947016954,-0.0010689827613532543,-0.0006108472589403391
1772556876846456800,6.675456787109375,0.00030542362947016954,-0.0004581354442052543,0.0006108472589403391
1772556876865230600,6.694230712890625,0.00030542362947016954,-0.0004581354442052543,0
1772556876884004000,6.713004150390625,-0.00030542362947016954,0.0007635590736754239,-0.0012216945178806782
1772556876902777900,6.73177783203125,0.00030542362947016954,-0.0004581354442052543,-0.0006108472589403391
1772556876921551600,6.750551513671875,0.00030542362947016954,-0.0004581354442052543,0
1772556876940325000,6.7693251953125,-0.0009162708884105086,0.0007635590736754239,-0.0006108472589403391
1772556876959099000,6.788098876953125,0.00030542362947016954,0.0007635590736754239,-0.0006108472589403391
1772556876977872400,6.806872314453125,0.00030542362947016954,-0.0016798300202935934,0.00015271181473508477
1772556876996646100,6.825646240234375,0.00030542362947016954,0.00015271181473508477,-0.0006108472589403391
1772556877015419600,6.844419677734375,0.0009162708884105086,0.00015271181473508477,-0.0006108472589403391
1772556877034193400,6.863193359375,-0.00030542362947016954,-0.0004581354442052543,-0.0006108472589403391
1772556877052967200,6.88196728515625,-0.00030542362947016954,0.0007635590736754239,0
1772556877071740700,6.90074072265625,-0.00030542362947016954,0.00030542362947016954,0.00015271181473508477
1772556877090514400,6.919514404296875,-0.00030542362947016954,-0.00030542362947016954,-0.0004581354442052543
1772556877109288000,6.938287841796875,0.00030542362947016954,-0.00030542362947016954,0.0007635590736754239
1772556877128061700,6.957061767578125,0.00030542362947016954,-0.0009162708884105086,0.00015271181473508477
1772556877146835200,6.975835205078125,0.0009162708884105086,0.00030542362947016954,-0.0004581354442052543
1772556877165609000,6.99460888671875,0.00030542362947016954,0.00030542362947016954,0.00015271181473508477
1772556877184382700,7.0133828125,-0.0009162708884105086,0.00030542362947016954,-0.0004581354442052543
1772556877203156200,7.03215625,0.00030542362947016954,0.00030542362947016954,-0.0010689827613532543
1772556877221930000,7.050929931640625,0.00030542362947016954,-0.00030542362947016954,-0.0010689827613532543
1772556877240703500,7.069703369140625,0.0009162708884105086,0.00030542362947016954,-0.0004581354442052543
1772556877259477200,7.088477294921875,0.00030542362947016954,-0.0009162708884105086,-0.0004581354442052543
1772556877278251000,7.1072509765625,-0.00030542362947016954,0.00030542362947016954,0.00015271181473508477
1772556877297024500,7.1260244140625,-0.00030542362947016954,-0.00030542362947016954,0.00015271181473508477
1772556877315798300,7.14479833984375,0.0015271181473508477,-0.00030542362947016954,0.00015271181473508477
1772556877334571800,7.16357177734375,0.00030542362947016954,0.0009162708884105086,0.0007635590736754239
1772556877353345500,7.182345458984375,0.0009162708884105086,-0.00030542362947016954,0.0007635590736754239
1772556877372119000,7.201119140625,0.00030542362947016954,-0.00030542362947016954,-0.0004581354442052543
1772556877390892800,7.219892822265625,0.00030542362947016954,-0.00030542362947016954,0.00015271181473508477
1772556877409666600,7.23866650390625,0.00030542362947016954,0.00030542362947016954,0.001374406274408102
1772556877428440000,7.257440185546875,-0.00030542362947016954,-0.0009162708884105086,-0.0010689827613532543
1772556877447213800,7.2762138671875,0.00030542362947016954,-0.00030542362947016954,0.00015271181473508477
1772556877465987300,7.2949873046875,0.00030542362947016954,0.00030542362947016954,-0.0004581354442052543
1772556877484761000,7.313760986328125,0.00030542362947016954,-0.00030542362947016954,0.0007635590736754239
1772556877503534800,7.332534912109375,0.0009162708884105086,-0.00030542362947016954,0.0007635590736754239
1772556877522308400,7.351308349609375,-0.00030542362947016954,0.00030542362947016954,0.00015271181473508477
1772556877541082000,7.37008203125,0.00030542362947016954,-0.00030542362947016954,-0.0004581354442052543
1772556877559855600,7.388855712890625,0.0009162708884105086,0.0009162708884105086,0.00015271181473508477
1772556877578629400,7.40762939453125,0.00030542362947016954,0.00030542362947016954,0.0007635590736754239
1772556877597403100,7.426403076171875,0.00030542362947016954,0.0009162708884105086,-0.0004581354442052543
1772556877616176600,7.4451767578125,-0.00030542362947016954,-0.00030542362947016954,0.00015271181473508477
1772556877634950400,7.463950439453125,0.00030542362947016954,0.00030542362947016954,-0.0010689827613532543
1772556877653724000,7.482723876953125,0.00030542362947016954,0.00030542362947016954,0.00015271181473508477
1772556877672497700,7.50149755859375,-0.00030542362947016954,0.00030542362947016954,0.0007635590736754239
1772556877691271200,7.520271240234375,-0.00030542362947016954,0.00030542362947016954,-0.0004581354442052543
1772556877710045000,7.539044921875,-0.00030542362947016954,-0.0009162708884105086,0.0007635590736754239
1772556877728818700,7.557818603515625,0.00030542362947016954,-0.0009162708884105086,0.00015271181473508477
1772556877747592200,7.57659228515625,0.00030542362947016954,0.0015271181473508477,-0.0004581354442052543
1772556877766366000,7.595365966796875,0.0009162708884105086,-0.00030542362947016954,0.00015271181473508477
1772556877785139500,7.614139404296875,-0.00030542362947016954,0.00030542362947016954,-0.0010689827613532543
1772556877803913200,7.632913330078125,0.0009162708884105086,-0.00030542362947016954,0.0007635590736754239
1772556877822686700,7.651686767578125,0.00030542362947016954,-0.0009162708884105086,-0.0004581354442052543
1772556877841460500,7.67046044921875,0.0009162708884105086,0.00030542362947016954,-0.0010689827613532543
1772556877860234000,7.68923388671875,-0.0009162708884105086,0.00030542362947016954,0.0007635590736754239
1772556877879007700,7.7080078125,0.00030542362947016954,0.00030542362947016954,-0.0004581354442052543
1772556877897781500,7.726781494140625,-0.0009162708884105086,0.0009162708884105086,-0.0004581354442052543
1772556877916555000,7.745554931640625,0.0009162708884105086,-0.00030542362947016954,0.0007635590736754239
1772556877935328800,7.764328857421875,0.0009162708884105086,0.00030542362947016954,0.001374406274408102
1772556877954102300,7.783102294921875,-0.00030542362947016954,0.0009162708884105086,-0.0016798300202935934
1772556877972876000,7.8018759765625,-0.00030542362947016954,-0.0009162708884105086,0.0007635590736754239
1772556877991649800,7.82064990234375,0.00030542362947016954,0.00030542362947016954,0.00015271181473508477
1772556878010423300,7.83942333984375,-0.00030542362947016954,0.00030542362947016954,0.00015271181473508477
1772556878029197000,7.858197021484375,-0.00030542362947016954,0.0015271181473508477,0.00015271181473508477
1772556878047970600,7.876970458984375,-0.00030542362947016954,0.00030542362947016954,0.0007635590736754239
1772556878066744300,7.895744384765625,0.00030542362947016954,0.0009162708884105086,0.0007635590736754239
1772556878085518000,7.91451806640625,-0.0009162708884105086,0.0015271181473508477,-0.0004581354442052543
1772556878104291600,7.93329150390625,0.00030542362947016954,0.0009162708884105086,-0.0004581354442052543
1772556878123065300,7.9520654296875,-0.00030542362947016954,0.00030542362947016954,-0.0004581354442052543
1772556878141838800,7.9708388671875,-0.0015271181473508477,-0.00030542362947016954,0.0007635590736754239
1772556878160612600,7.989612548828125,0.00030542362947016954,-0.00030542362947016954,0.0007635590736754239
1772556878179386000,8.00838623046875,0.0009162708884105086,-0.00030542362947016954,-0.0004581354442052543
1772556878198160000,8.027159912109376,0.00030542362947016954,0.0009162708884105086,-0.0010689827613532543
1772556878216933400,8.045933349609374,-0.00030542362947016954,0.0009162708884105086,-0.0010689827613532543
1772556878235707100,8.06470703125,0.00030542362947016954,0.0009162708884105086,-0.0010689827613532543
1772556878254481000,8.08348095703125,-0.00030542362947016954,0.00030542362947016954,-0.0004581354442052543
1772556878273254400,8.10225439453125,0.00030542362947016954,0.00030542362947016954,0.0007635590736754239
1772556878292028200,8.121028076171875,-0.00030542362947016954,0.00030542362947016954,-0.0004581354442052543
1772556878310801700,8.1398017578125,-0.00030542362947016954,-0.00030542362947016954,0.0007635590736754239
1772556878329575400,8.158575439453125,0.00030542362947016954,0.00030542362947016954,0.00015271181473508477
1772556878348349200,8.17734912109375,0.00030542362947016954,0.0009162708884105086,0.0007635590736754239
1772556878367122700,8.196122802734376,-0.00030542362947016954,-0.00030542362947016954,0.001374406274408102
1772556878385896400,8.214896484375,0.00030542362947016954,0.00030542362947016954,0.0007635590736754239
1772556878404670000,8.233669921875,0.00030542362947016954,-0.00030542362947016954,0.00015271181473508477
1772556878423443700,8.252443603515625,-0.00030542362947016954,0.00030542362947016954,-0.0004581354442052543
1772556878442217200,8.27121728515625,-0.00030542362947016954,-0.00030542362947016954,0.001985253533348441
1772556878460991000,8.289990966796875,-0.00030542362947016954,0.00030542362947016954,-0.0010689827613532543
1772556878479764700,8.3087646484375,-0.00030542362947016954,-0.0015271181473508477,-0.0004581354442052543
1772556878498538200,8.327538330078125,0.00030542362947016954,0.0009162708884105086,0.0007635590736754239
1772556878517312000,8.34631201171875,0.00030542362947016954,0.00030542362947016954,0.0007635590736754239
1772556878536085500,8.36508544921875,-0.00030542362947016954,0.00030542362947016954,-0.0004581354442052543
1772556878554859300,8.383859375,-0.00030542362947016954,-0.00030542362947016954,0.00015271181473508477
1772556878573632800,8.4026328125,-0.00030542362947016954,0.00030542362947016954,0.00015271181473508477
1772556878592406500,8.421406494140625,-0.00030542362947016954,0.0009162708884105086,0.00015271181473508477
1772556878611180000,8.440179931640625,-0.00030542362947016954,0.0009162708884105086,0.00015271181473508477
1772556878629953800,8.458953857421875,0.00030542362947016954,-0.00030542362947016954,0.0007635590736754239
1772556878648727600,8.4777275390625,-0.00030542362947016954,0.00030542362947016954,0.00015271181473508477
1772556878667501000,8.4965009765625,0.00030542362947016954,0.0009162708884105086,0.0007635590736754239
1772556878686274800,8.51527490234375,-0.00030542362947016954,0.00030542362947016954,0.00015271181473508477
1772556878705048300,8.53404833984375,0.00030542362947016954,0.0015271181473508477,-0.0010689827613532543
1772556878723822000,8.552822021484374,-0.00030542362947016954,-0.00030542362947016954,0.00015271181473508477
1772556878742595800,8.571595947265624,0.00030542362947016954,-0.00030542362947016954,-0.0004581354442052543
1772556878761369300,8.590369384765625,0.00030542362947016954,-0.00030542362947016954,-0.0004581354442052543
1772556878780143000,8.60914306640625,0.0009162708884105086,0.00030542362947016954,0.00015271181473508477
1772556878798916600,8.62791650390625,-0.00030542362947016954,0.00030542362947016954,0.0007635590736754239
1772556878817690400,8.6466904296875,-0.00030542362947016954,-0.0004581354442052543,-0.0004581354442052543
1772556878836463900,8.6654638671875,0.00030542362947016954,0.00015271181473508477,0.0007635590736754239
1772556878855237600,8.684237548828126,-0.0009162708884105086,0.00015271181473508477,-0.0004581354442052543
1772556878874011100,8.70301123046875,-0.00030542362947016954,-0.0004581354442052543,-0.0004581354442052543
1772556878892785000,8.721784912109374,-0.00030542362947016954,-0.0004581354442052543,0.0007635590736754239
1772556878911558700,8.74055859375,-0.00030542362947016954,-0.0004581354442052543,0.00015271181473508477
1772556878930332200,8.759332275390625,0.00030542362947016954,0.00015271181473508477,-0.0010689827613532543
1772556878949106000,8.77810595703125,-0.00030542362947016954,-0.0004581354442052543,0.0007635590736754239
1772556878967879400,8.79687939453125,0.0009162708884105086,0.0007635590736754239,-0.0004581354442052543
1772556878986653200,8.815653076171875,-0.00030542362947016954,-0.0004581354442052543,0.00015271181473508477
1772556879005427000,8.834427001953125,0.00030542362947016954,-0.0004581354442052543,0.00015271181473508477
1772556879024200400,8.853200439453126,0.00030542362947016954,-0.0004581354442052543,0.0007635590736754239
1772556879042974200,8.87197412109375,-0.00030542362947016954,-0.0004581354442052543,-0.0004581354442052543
1772556879061747700,8.890747802734374,0.00030542362947016954,0.001374406274408102,-0.0004581354442052543
1772556879080521500,8.909521484375,0.00030542362947016954,-0.0004581354442052543,0.00015271181473508477
1772556879099295000,8.928294921875,0.00030542362947016954,0.00015271181473508477,0.00015271181473508477
1772556879118068700,8.94706884765625,0.00030542362947016954,-0.0004581354442052543,-0.0004581354442052543
1772556879136842200,8.96584228515625,-0.00030542362947016954,-0.0010689827613532543,0.00015271181473508477
1772556879155616000,8.984615966796875,0.00030542362947016954,0.00015271181473508477,0.0007635590736754239
1772556879174389800,9.0033896484375,-0.00030542362947016954,0.00015271181473508477,0.00015271181473508477
1772556879193163300,9.022163330078126,0.00030542362947016954,0.0007635590736754239,-0.0004581354442052543
1772556879211937000,9.04093701171875,-0.00030542362947016954,0.0007635590736754239,-0.0004581354442052543
1772556879230710500,9.05971044921875,0.00030542362947016954,-0.0010689827613532543,0.0007635590736754239
1772556879249484300,9.078484375,-0.00030542362947016954,-0.0010689827613532543,-0.0010689827613532543
1772556879268257800,9.0972578125,0.00030542362947016954,-0.0016798300202935934,0.00015271181473508477
1772556879287031600,9.116031494140625,0.00030542362947016954,-0.0004581354442052543,-0.0004581354442052543
1772556879305805300,9.134805419921875,-0.00030542362947016954,0.00015271181473508477,0.001374406274408102
1772556879324578800,9.153578857421875,-0.00030542362947016954,0.0007635590736754239,0.00015271181473508477
1772556879343352600,9.1723525390625,0.0009162708884105086,0.00015271181473508477,-0.0004581354442052543
1772556879362126000,9.1911259765625,0.00030542362947016954,-0.0016798300202935934,0.0009162708884105086
1772556879380899800,9.20989990234375,-0.00030542362947016954,0.00015271181473508477,0.00015271181473508477
1772556879399673300,9.22867333984375,-0.00030542362947016954,-0.0004581354442052543,0.0007635590736754239
1772556879418447000,9.247447021484374,-0.00030542362947016954,-0.0004581354442052543,0.001374406274408102
1772556879437220600,9.266220703125,0.0009162708884105086,0.0007635590736754239,-0.0004581354442052543
1772556879455994400,9.284994384765625,0.00030542362947016954,0.00015271181473508477,-0.0010689827613532543
1772556879474768100,9.30376806640625,0.00030542362947016954,-0.0004581354442052543,0.00015271181473508477
1772556879493541600,9.322541748046875,0.00030542362947016954,0.00015271181473508477,0.00015271181473508477
1772556879512315400,9.3413154296875,0.0009162708884105086,-0.0016798300202935934,0.0009162708884105086
1772556879531089000,9.3600888671875,0.00030542362947016954,-0.0004581354442052543,0.0007635590736754239
1772556879549862700,9.378862548828126,-0.0009162708884105086,-0.0004581354442052543,0.001374406274408102
1772556879568636400,9.397636474609374,0.00030542362947016954,0.00015271181473508477,-0.0004581354442052543
1772556879587410000,9.416409912109375,-0.00030542362947016954,0.00015271181473508477,-0.0004581354442052543
1772556879606183700,9.43518359375,-0.00030542362947016954,0.001374406274408102,-0.0010689827613532543
1772556879624957200,9.453957275390625,-0.00030542362947016954,0.00015271181473508477,0.0007635590736754239
1772556879643731000,9.47273095703125,0.0009162708884105086,0.001374406274408102,0.0007635590736754239
1772556879662504700,9.491504638671875,0.00030542362947016954,0.0007635590736754239,-0.0004581354442052543
1772556879681278200,9.5102783203125,-0.0009162708884105086,0.00015271181473508477,0.00015271181473508477
1772556879700052000,9.529052001953126,0.00030542362947016954,-0.0004581354442052543,0.00015271181473508477
1772556879718825500,9.547825439453124,0.00030542362947016954,-0.0004581354442052543,0.00015271181473508477
1772556879737599200,9.56659912109375,0.0009162708884105086,0.00015271181473508477,0.00015271181473508477
1772556879756372700,9.585372802734375,0.00030542362947016954,-0.0004581354442052543,0.00015271181473508477
1772556879775146500,9.604146484375,-0.00030542362947016954,0.0007635590736754239,-0.0004581354442052543
1772556879793920300,9.622920166015625,0.00030542362947016954,-0.0004581354442052543,0.0007635590736754239
1772556879812693800,9.64169384765625,0.0009162708884105086,-0.0004581354442052543,0.001374406274408102
1772556879831467500,9.660467529296875,-0.00030542362947016954,0.0007635590736754239,-0.0004581354442052543
1772556879850241000,9.679240966796876,-0.0009162708884105086,-0.0004581354442052543,-0.0004581354442052543
1772556879869014800,9.698014892578126,-0.00030542362947016954,0.00015271181473508477,-0.0010689827613532543
1772556879887788300,9.716788330078124,0.00030542362947016954,0.00015271181473508477,0.00015271181473508477
1772556879906562000,9.73556201171875,-0.00030542362947016954,-0.0010689827613532543,-0.0010689827613532543
1772556879925335600,9.75433544921875,-0.00030542362947016954,-0.0010689827613532543,0.00015271181473508477
1772556879944109300,9.773109375,0.00030542362947016954,0.00015271181473508477,-0.0010689827613532543
1772556879962883000,9.791883056640625,-0.00030542362947016954,0.00015271181473508477,0.0007635590736754239
1772556879981656600,9.810656494140625,0.00030542362947016954,0.0007635590736754239,-0.0010689827613532543
1772556880000430300,9.829430419921875,-0.00030542362947016954,0.00015271181473508477,-0.0004581354442052543
1772556880019203800,9.848203857421876,0.0009162708884105086,0.00015271181473508477,-0.0004581354442052543
1772556880037977600,9.8669775390625,-0.00030542362947016954,0.00015271181473508477,0.0007635590736754239
1772556880056751400,9.88575146484375,0.00030542362947016954,-0.0004581354442052543,0.00015271181473508477
1772556880075524900,9.90452490234375,0.00030542362947016954,-0.0004581354442052543,-0.0010689827613532543
1772556880094298600,9.923298583984375,0.00030542362947016954,0.00015271181473508477,0.00015271181473508477
1772556880113072000,9.942072021484375,0.00030542362947016954,-0.0016798300202935934,-0.0004581354442052543
1772556880131846000,9.960845947265625,-0.00030542362947016954,0.0007635590736754239,0.00015271181473508477
1772556880150619600,9.97961962890625,0.00030542362947016954,0.001985253533348441,0.007635590620338917
1772556880169393200,9.99839306640625,0.0009162708884105086,0.0016798300202935934,-0.013438640162348747
1772556880188167000,10.0171669921875,-0.00030542362947016954,-0.0006108472589403391,-0.0065666078589856625
1772556880206940400,10.0359404296875,-0.00030542362947016954,-0.0012216945178806782,-0.0065666078589856625
1772556880225714200,10.054714111328124,0.00030542362947016954,0.0006108472589403391,-0.0035123717971146107
1772556880244488000,10.073488037109374,0.0009162708884105086,0.00015271181473508477,-0.0010689827613532543
