time,seconds_elapsed,z,y,x
1772740197673895000,0.24789501953125,-0.08400726318359375,0.055639028549194336,0.05336064100265503
1772740197692667000,0.2666669921875,-0.11676025390625,0.05788397789001465,0.0668163001537323
1772740197711438800,0.28543896484375,-0.06983470916748047,0.06601619720458984,0.08623924851417542
1772740197730210800,0.3042109375,-0.10753726959228516,0.09933090209960938,0.06401300430297852
1772740197748982800,0.322982666015625,-0.09039688110351562,0.1611323356628418,0.03769364953041077
1772740197767755000,0.341755126953125,0.003948211669921875,0.09486746788024902,0.06324997544288635
1772740197786527000,0.36052685546875,0.035266876220703125,0.04431962966918945,0.05042329430580139
1772740197805299000,0.379298828125,0.03636932373046875,0.030400753021240234,0.03108656406402588
1772740197824071000,0.39807080078125,-0.015160560607910156,0.037963151931762695,0.010791271924972534
1772740197842843000,0.4168427734375,-0.08041572570800781,0.07778763771057129,-0.005888819694519043
1772740197861615000,0.435614990234375,0.003753662109375,0.09898948669433594,0.014519870281219482
1772740197880387000,0.454386962890625,-0.0012388229370117188,0.07889413833618164,0.029323995113372803
1772740197899159000,0.473158935546875,0.030378341674804688,0.058897972106933594,0.014174312353134155
1772740197917931000,0.491930908203125,0.02789783477783203,0.03011631965637207,0.006781220436096191
1772740197936703200,0.510703125,0.055174827575683594,0.009713888168334961,-0.01918157935142517
1772740197955475200,0.52947509765625,-0.08120059967041016,0.010910511016845703,-0.025019347667694092
1772740197974247200,0.5482470703125,-0.05444812774658203,0.09352827072143555,-0.02970394492149353
1772740197993019100,0.56701904296875,-0.012522697448730469,0.027228116989135742,0.016363203525543213
1772740198011791000,0.585791015625,-0.01946544647216797,0.008507013320922852,0.005116313695907593
1772740198030563000,0.60456298828125,-0.07756519317626953,-0.045729637145996094,0.03730472922325134
1772740198049335300,0.623335205078125,-0.15168380737304688,0.05436515808105469,0.0081404447555542
1772740198068107300,0.642107177734375,-0.044182777404785156,0.058942317962646484,0.08652237057685852
1772740198086879200,0.660879150390625,-0.13186264038085938,0.07421469688415527,0.04999461770057678
1772740198105651200,0.679651123046875,-0.0754251480102539,0.10364222526550293,0.062087804079055786
1772740198124423200,0.698423095703125,-0.11171245574951172,0.0914764404296875,0.05330479145050049
1772740198143195400,0.7171953125,-0.11653518676757812,0.07726764678955078,-0.0004310905933380127
1772740198161967400,0.73596728515625,-0.10816764831542969,0.02616262435913086,-0.016438812017440796
1772740198180739300,0.7547392578125,-0.056377410888671875,-0.005818605422973633,-0.044907838106155396
1772740198199511300,0.77351123046875,0.03561115264892578,-0.05015707015991211,-0.02612757682800293
1772740198218283300,0.792283203125,0.0232696533203125,-0.027875661849975586,-0.039653003215789795
1772740198237055500,0.811055419921875,0.0690460205078125,-0.0054743289947509766,-0.01452454924583435
1772740198255827500,0.829827392578125,0.04950904846191406,0.0043048858642578125,0.017072826623916626
1772740198274599400,0.848599365234375,-0.039703369140625,0.0008513927459716797,0.03587377071380615
1772740198293371400,0.867371337890625,-0.10074901580810547,0.038374900817871094,0.03850078582763672
1772740198312143400,0.886143310546875,-0.06000328063964844,0.10567045211791992,0.059585124254226685
1772740198330915600,0.90491552734375,-0.0822916030883789,0.13703513145446777,0.0643235445022583
1772740198349687600,0.9236875,-0.11266231536865234,0.1390669345855713,0.057754069566726685
1772740198368459500,0.94245947265625,-0.05078887939453125,0.11237907409667969,0.07382649183273315
1772740198387231500,0.9612314453125,0.06058788299560547,0.030390024185180664,0.08682042360305786
1772740198406003500,0.98000341796875,0.047537803649902344,0.032660484313964844,0.03813275694847107
1772740198424775700,0.998775634765625,-0.09580516815185547,0.11360383033752441,0.007893294095993042
1772740198443547600,1.017547607421875,-0.04611778259277344,0.13972020149230957,0.015867799520492554
1772740198462319600,1.036319580078125,0.09407901763916016,0.015236854553222656,0.00804862380027771
1772740198481091600,1.055091552734375,0.03980445861816406,-0.05053067207336426,-0.013206660747528076
1772740198499863800,1.07386376953125,-0.03530120849609375,-0.017772912979125977,-0.046123385429382324
1772740198518635800,1.0926357421875,-0.018462181091308594,-0.016101598739624023,-0.023555606603622437
1772740198537407700,1.11140771484375,-0.010293960571289062,0.024567365646362305,-0.02307063341140747
1772740198556179700,1.1301796875,-0.05448341369628906,0.05479717254638672,-0.010579884052276611
1772740198574951700,1.14895166015625,-0.07379341125488281,0.06771516799926758,-0.019792944192886353
1772740198593724000,1.167723876953125,-0.06603145599365234,-0.003977775573730469,-0.004524856805801392
1772740198612496000,1.186495849609375,-0.07498836517333984,-0.023786067962646484,-0.024956613779067993
1772740198631267800,1.205267822265625,-0.08594799041748047,-0.0031228065490722656,-0.013092488050460815
1772740198650039800,1.224039794921875,-0.09625530242919922,0.061543941497802734,-0.016871988773345947
1772740198668811800,1.242811767578125,-0.03682899475097656,0.05516219139099121,0.001001119613647461
1772740198687584000,1.261583984375,0.04050445556640625,0.0338139533996582,0.044982969760894775
1772740198706356000,1.28035595703125,0.02996349334716797,0.022298336029052734,0.07140573859214783
1772740198725128000,1.2991279296875,-0.007442474365234375,0.01642322540283203,0.061541467905044556
1772740198743900000,1.31789990234375,-0.006198883056640625,0.008821725845336914,0.06537297368049622
1772740198762671900,1.336671875,-0.02097034454345703,0.10086202621459961,0.062017202377319336
1772740198781444000,1.355444091796875,-0.10275745391845703,0.12211465835571289,0.04369208216667175
1772740198800216000,1.374216064453125,-0.08522224426269531,0.055847883224487305,0.02750536799430847
1772740198818988000,1.392988037109375,-0.05000877380371094,-0.011883735656738281,-0.0170610249042511
1772740198837760000,1.411760009765625,-0.03534889221191406,-0.00985407829284668,-0.03986451029777527
1772740198856532000,1.430531982421875,-0.05762767791748047,0.007084369659423828,-0.049316078424453735
1772740198875304200,1.44930419921875,-0.028006553649902344,0.011442184448242188,-0.0584072470664978
1772740198894076200,1.468076171875,0.000823974609375,-0.04425859451293945,-0.039894312620162964
1772740198912848100,1.48684814453125,-0.024499893188476562,-0.01365804672241211,-0.0202006995677948
1772740198931620000,1.5056201171875,-0.03725910186767578,0.04278087615966797,0.014319926500320435
1772740198950392000,1.52439208984375,-0.062358856201171875,0.044258832931518555,0.04628118872642517
1772740198969164300,1.543164306640625,-0.07502269744873047,0.045604705810546875,0.055977702140808105
1772740198987936300,1.561936279296875,-0.03802776336669922,0.05121922492980957,0.08365124464035034
1772740199006708200,1.580708251953125,-0.07855415344238281,0.05100822448730469,0.0799415111541748
1772740199025480200,1.599480224609375,-0.05741310119628906,0.08904910087585449,0.052079081535339355
1772740199044252400,1.61825244140625,-0.08256912231445312,0.002040386199951172,0.09097975492477417
1772740199063024400,1.6370244140625,-0.01797008514404297,-0.0032782554626464844,0.0557745099067688
1772740199081796400,1.65579638671875,-0.0804910659790039,0.0408785343170166,0.056773602962493896
1772740199100568300,1.674568359375,-0.2550840377807617,0.10610675811767578,0.004231065511703491
1772740199119340300,1.69334033203125,-0.08213329315185547,0.07094240188598633,0.023953408002853394
1772740199138112500,1.712112548828125,-0.029260635375976562,-0.029065847396850586,-0.0004372894763946533
1772740199156884500,1.730884521484375,-0.03784751892089844,-0.03555488586425781,-0.055407822132110596
1772740199175656400,1.749656494140625,0.06803131103515625,-0.015729188919067383,-0.031204819679260254
1772740199194428400,1.768428466796875,-0.00060272216796875,0.02532649040222168,-0.021719396114349365
1772740199213200400,1.787200439453125,-0.014870643615722656,0.07758498191833496,0.0012637674808502197
1772740199231972600,1.80597265625,-0.008917808532714844,0.13969087600708008,0.00667455792427063
1772740199250744600,1.82474462890625,0.03366374969482422,0.12019729614257812,-0.006498277187347412
1772740199269516500,1.8435166015625,0.0877237319946289,0.029824018478393555,0.05049943923950195
1772740199288288500,1.86228857421875,0.028868675231933594,0.06718802452087402,0.025167256593704224
1772740199307060700,1.881060791015625,-0.10413551330566406,0.09940528869628906,0.010971993207931519
1772740199325832700,1.899832763671875,-0.10412788391113281,0.09423255920410156,0.012850016355514526
1772740199344604700,1.918604736328125,-0.0594940185546875,0.0626988410949707,0.04007580876350403
1772740199363376600,1.937376708984375,-0.04184436798095703,0.0563809871673584,0.027278602123260498
1772740199382148600,1.956148681640625,-0.07710075378417969,0.034009456634521484,0.029198676347732544
1772740199400920800,1.9749208984375,-0.07678699493408203,0.02642083168029785,0.00386086106300354
1772740199419692800,1.99369287109375,-0.079376220703125,-0.0009055137634277344,-0.005219697952270508
1772740199438464800,2.01246484375,-0.11284351348876953,0.018209457397460938,0.0021760761737823486
1772740199457236700,2.03123681640625,-0.16790199279785156,0.04244637489318848,-0.033648401498794556
1772740199476009000,2.050009033203125,-0.1506366729736328,0.011485576629638672,-0.0325683057308197
1772740199494781000,2.068781005859375,-0.1030740737915039,0.02101302146911621,-0.03510090708732605
1772740199513553000,2.087552978515625,-0.1339406967163086,0.054262399673461914,-0.012066304683685303
1772740199532324900,2.106324951171875,-0.15525436401367188,0.08719658851623535,-0.007160872220993042
1772740199551097000,2.12509716796875,-0.11556434631347656,0.04865860939025879,0.02874046564102173
1772740199569869000,2.143869140625,-0.046996116638183594,0.07203340530395508,0.009409546852111816
1772740199588641000,2.16264111328125,0.018527984619140625,0.05637550354003906,0.03999811410903931
1772740199607413000,2.1814130859375,0.05983257293701172,0.0467071533203125,0.05802538990974426
1772740199626185200,2.200185302734375,0.05048656463623047,0.0710597038269043,0.07437893748283386
1772740199644957200,2.218957275390625,0.050464630126953125,0.10962724685668945,0.08365851640701294
1772740199663729200,2.237729248046875,-0.031299591064453125,0.1902775764465332,0.03669697046279907
1772740199682501000,2.256501220703125,-0.03545570373535156,0.11116790771484375,0.060264378786087036
1772740199701273000,2.275273193359375,-0.008772850036621094,0.1120290756225586,0.03146854043006897
1772740199720045300,2.29404541015625,0.025331497192382812,0.03307223320007324,0.07246306538581848
1772740199738817300,2.3128173828125,-0.02433300018310547,0.05298495292663574,0.03362077474594116
1772740199757589200,2.33158935546875,-0.17729663848876953,0.12071537971496582,-0.010984927415847778
1772740199776361200,2.350361328125,-0.11118602752685547,0.1534111499786377,0.005042463541030884
1772740199795133400,2.369133544921875,-0.026025772094726562,0.05082559585571289,0.015121057629585266
1772740199813905400,2.387905517578125,0.01810741424560547,-0.03907513618469238,0.0035085678100585938
1772740199832677400,2.406677490234375,-0.06570625305175781,-0.03861069679260254,-0.016434237360954285
1772740199851449300,2.425449462890625,-0.004080772399902344,0.05094623565673828,0.00594252347946167
1772740199870221600,2.4442216796875,-0.05411338806152344,0.047621726989746094,0.05049535632133484
1772740199888993500,2.46299365234375,-0.029022216796875,0.0855867862701416,0.043427929282188416
1772740199907765500,2.481765625,-0.058279991149902344,0.05478525161743164,0.051557838916778564
1772740199926537500,2.500537353515625,-0.09745979309082031,0.0817570686340332,0.04460851848125458
1772740199945309400,2.519309326171875,-0.06420230865478516,0.07280230522155762,0.0377860963344574
1772740199964081700,2.53808154296875,-0.1064920425415039,0.061318159103393555,0.021919846534729004
1772740199982853600,2.556853515625,-0.09978866577148438,0.05932474136352539,0.01181955635547638
1772740200001625600,2.57562548828125,-0.03619384765625,0.04924654960632324,0.03068283200263977
1772740200020397600,2.5943974609375,-0.015886306762695312,0.04059720039367676,0.01778031885623932
1772740200039169800,2.613169677734375,-0.004717826843261719,0.009055137634277344,0.01111583411693573
1772740200057941800,2.631941650390625,0.02056598663330078,-0.0010139942169189453,0.038802385330200195
1772740200076713700,2.650713623046875,0.029621124267578125,0.0360560417175293,0.04185870289802551
1772740200095485700,2.669485595703125,-0.044048309326171875,0.058573246002197266,0.045674681663513184
1772740200114258000,2.6882578125,-0.0801849365234375,0.08202171325683594,0.04142075777053833
1772740200133030000,2.70702978515625,-0.09740352630615234,0.07776212692260742,0.043128326535224915
1772740200151801900,2.7258017578125,-0.06417369842529297,0.10031747817993164,0.028498247265815735
1772740200170573800,2.74457373046875,-0.04030895233154297,0.04788661003112793,0.023675590753555298
1772740200189346000,2.763345947265625,-0.008435249328613281,0.019754409790039062,0.013052642345428467
1772740200208118000,2.782117919921875,-0.009210586547851562,0.015676259994506836,0.017291083931922913
1772740200226890000,2.800889892578125,-0.007686614990234375,0.05870461463928223,0.009820640087127686
1772740200245662000,2.819661865234375,-0.10190200805664062,0.018531084060668945,0.0072558969259262085
1772740200264434200,2.83843408203125,-0.0703268051147461,0.025204181671142578,0.01996023952960968
1772740200283206100,2.8572060546875,-0.0758962631225586,0.015338659286499023,0.03141789138317108
1772740200301978000,2.87597802734375,-0.039223670959472656,0.03656435012817383,0.045138776302337646
1772740200320750300,2.894750244140625,-0.033191680908203125,0.02078843116760254,0.038365304470062256
1772740200339522300,2.913522216796875,0.00014400482177734375,0.031934499740600586,0.012323424220085144
1772740200358294300,2.932294189453125,0.05137062072753906,0.021799325942993164,0.02930419147014618
1772740200377066200,2.951066162109375,-0.048061370849609375,0.05733489990234375,0.01097649335861206
1772740200395838500,2.96983837890625,-0.09075736999511719,0.04120349884033203,0.018091946840286255
1772740200414610400,2.9886103515625,-0.07273387908935547,-0.0070400238037109375,0.03716935217380524
1772740200433382400,3.00738232421875,-0.13230419158935547,0.03940176963806152,-0.015438243746757507
1772740200452154400,3.026154296875,-0.12189769744873047,0.08938860893249512,-0.021141842007637024
1772740200470926600,3.044926513671875,-0.06365585327148438,0.08176708221435547,-0.015014812350273132
1772740200489698600,3.063698486328125,-0.006011962890625,-0.00036406517028808594,-0.0002617090940475464
1772740200508470500,3.082470458984375,-0.02432727813720703,-0.0024881362915039062,-0.024405568838119507
1772740200527242500,3.101242431640625,-0.03900432586669922,0.00512242317199707,-0.00411716103553772
1772740200546014700,3.1200146484375,-0.0026416778564453125,0.05382251739501953,0.012581348419189453
1772740200564786700,3.13878662109375,0.03464794158935547,0.07139968872070312,0.053089603781700134
1772740200583558700,3.15755859375,-0.07219123840332031,0.07448935508728027,0.020162686705589294
1772740200602330600,3.17633056640625,-0.060985565185546875,0.08869814872741699,0.007960110902786255
1772740200621102800,3.195102783203125,-0.12310123443603516,0.04640340805053711,0.017878800630569458
1772740200639874800,3.213874755859375,-0.1394367218017578,0.07003974914550781,-0.03299781680107117
1772740200658646800,3.232646728515625,-0.08214282989501953,0.02658534049987793,-0.0012116432189941406
1772740200677419000,3.2514189453125,-0.039261817932128906,0.014569520950317383,-0.04907916486263275
1772740200696191000,3.27019091796875,0.005007743835449219,-0.048392534255981445,-0.02906881272792816
1772740200714963000,3.288962890625,0.022539138793945312,-0.048650264739990234,-0.01656588912010193
1772740200733735000,3.30773486328125,0.033721923828125,0.006509304046630859,0.009439036250114441
1772740200752507100,3.326507080078125,0.0071544647216796875,0.00813603401184082,0.055137068033218384
1772740200771279000,3.345279052734375,0.033812522888183594,0.052811622619628906,0.07381801307201385
1772740200790051000,3.364051025390625,-0.003939628601074219,0.04588747024536133,0.08942466974258423
1772740200808823000,3.382822998046875,-0.043028831481933594,0.08058285713195801,0.05337916314601898
1772740200827595300,3.40159521484375,-0.08811759948730469,0.07024621963500977,0.0485280305147171
1772740200846367200,3.4203671875,-0.02701568603515625,0.09624600410461426,0.024418175220489502
1772740200865139200,3.43913916015625,-0.0667428970336914,0.03750944137573242,0.04279278218746185
1772740200883911200,3.4579111328125,-0.06540679931640625,0.03471541404724121,-0.007284834980964661
1772740200902683400,3.476683349609375,0.022805213928222656,-0.019418716430664062,0.027188032865524292
1772740200921455400,3.495455322265625,-0.0013685226440429688,0.025133848190307617,-0.00424329936504364
1772740200940227300,3.514227294921875,-0.031099319458007812,0.005299568176269531,0.0070762038230896
1772740200958999300,3.532999267578125,-0.06927204132080078,0.015282154083251953,-0.008250996470451355
1772740200977771500,3.551771484375,-0.06472110748291016,0.013971805572509766,0.004410967230796814
1772740200996543500,3.57054345703125,-0.034046173095703125,0.048508644104003906,0.026843875646591187
1772740201015315500,3.5893154296875,-0.031200408935546875,0.04105067253112793,0.044618427753448486
1772740201034087400,3.60808740234375,-0.072265625,0.021235227584838867,0.0378706157207489
1772740201052859600,3.626859619140625,-0.11408519744873047,0.0467989444732666,0.019749373197555542
1772740201071631600,3.645631591796875,-0.1226053237915039,0.04417920112609863,0.009435206651687622
1772740201090403600,3.664403564453125,-0.10643863677978516,0.024640560150146484,0.02773737907409668
1772740201109175800,3.68317578125,-0.024924278259277344,-0.02579331398010254,0.039554163813591
1772740201127947800,3.70194775390625,-0.017371177673339844,-0.03179669380187988,0.04931241273880005
1772740201146719700,3.7207197265625,-0.1060628890991211,0.10061383247375488,0.022604793310165405
1772740201165491700,3.73949169921875,-0.03652381896972656,0.10218548774719238,0.03327631950378418
1772740201184264000,3.758263916015625,0.11408424377441406,-0.008001089096069336,0.05663637816905975
1772740201203036000,3.777035888671875,0.059273719787597656,-0.04006052017211914,0.046687573194503784
1772740201221807900,3.795807861328125,-0.011557579040527344,0.03457331657409668,0.007209807634353638
1772740201240580000,3.814580078125,-0.021994590759277344,0.0389707088470459,0.03343963623046875
1772740201259352000,3.83335205078125,0.001529693603515625,0.011854171752929688,0.04698561131954193
1772740201278124000,3.8521240234375,-0.0027227401733398438,0.04920363426208496,0.045492321252822876
1772740201296896300,3.870896240234375,-0.06354331970214844,0.08613419532775879,0.017601236701011658
1772740201315668200,3.889668212890625,-0.0838479995727539,0.06723165512084961,0.004098087549209595
1772740201334440200,3.908440185546875,-0.00201416015625,-0.013144493103027344,-0.00636976957321167
1772740201353212200,3.927212158203125,-0.018883705139160156,-0.043910980224609375,-0.014959454536437988
1772740201371984100,3.945984130859375,-0.1850757598876953,0.0184326171875,-0.0626285970211029
1772740201390756400,3.96475634765625,-0.23143959045410156,0.01790785789489746,-0.0470522940158844
1772740201409528300,3.9835283203125,-0.14557552337646484,-0.010314226150512695,-0.019594162702560425
1772740201428300300,4.00230029296875,-0.0794534683227539,-0.00641322135925293,0.018740341067314148
1772740201447072500,4.021072509765625,0.012652397155761719,0.012142419815063477,0.03713536262512207
1772740201465844500,4.039844482421875,0.005581855773925781,0.014248371124267578,0.05367560684680939
1772740201484616400,4.058616455078125,0.029615402221679688,0.017156362533569336,0.05058901011943817
1772740201503388700,4.077388671875,0.05991172790527344,0.06904244422912598,0.024742141366004944
1772740201522160600,4.09616064453125,0.032471656799316406,0.08439993858337402,0.029431432485580444
1772740201540932600,4.1149326171875,-0.03655719757080078,0.07239151000976562,0.008314788341522217
1772740201559704600,4.13370458984375,0.0392608642578125,0.0639045238494873,0.025104328989982605
1772740201578476800,4.152476806640625,0.035236358642578125,0.025001049041748047,0.03930892050266266
1772740201597248800,4.171248779296875,-0.013544082641601562,0.0483856201171875,0.02695220708847046
1772740201616020700,4.190020751953125,-0.055718421936035156,0.05172109603881836,0.031175732612609863
1772740201634793000,4.20879296875,-0.04512500762939453,0.048512935638427734,0.028975263237953186
1772740201653565000,4.22756494140625,0.026834487915039062,-0.005625724792480469,0.038930222392082214
1772740201672337000,4.2463369140625,-0.054439544677734375,-0.0356600284576416,0.03747826814651489
1772740201691109000,4.265109130859375,-0.09219837188720703,0.0330348014831543,0.028218001127243042
1772740201709881000,4.283881103515625,-0.1502532958984375,0.04316544532775879,0.0005849301815032959
1772740201728653000,4.302653076171875,-0.07314682006835938,0.024082660675048828,0.021570667624473572
1772740201747425000,4.321425048828125,-0.14478397369384766,0.017148733139038086,-0.0035604536533355713
1772740201766197200,4.340197265625,-0.06143474578857422,0.03800821304321289,-0.0080491304397583
1772740201784969200,4.35896923828125,0.04554557800292969,0.022211074829101562,0.005247935652732849
1772740201803741200,4.3777412109375,-0.074798583984375,0.019858837127685547,-0.04727163910865784
1772740201822513200,4.39651318359375,-0.05135917663574219,-0.015233755111694336,-0.005663707852363586
1772740201841285400,4.415285400390625,0.025188446044921875,-0.019753217697143555,0.02994561195373535
1772740201860057300,4.434057373046875,0.043178558349609375,0.01978135108947754,0.013248145580291748
1772740201878829300,4.452829345703125,-0.0922231674194336,0.06950139999389648,0.006242468953132629
1772740201897601500,4.4716015625,-0.050994873046875,0.14051508903503418,0.01717275381088257
1772740201916373500,4.49037353515625,0.07891845703125,0.047156572341918945,0.0786857008934021
1772740201935145500,4.5091455078125,-0.02774524688720703,0.0007140636444091797,0.032602280378341675
1772740201953917700,4.527917724609375,-0.0733175277709961,0.01614093780517578,0.0008827745914459229
1772740201972689700,4.546689697265625,-0.04871082305908203,0.021120786666870117,0.020191192626953125
1772740201991461600,4.565461669921875,-0.08365726470947266,0.01663351058959961,-0.005338147282600403
1772740202010233900,4.58423388671875,-0.05072593688964844,0.0029997825622558594,0.03834931552410126
1772740202029005800,4.603005859375,-0.1137685775756836,0.05164361000061035,-0.013446599245071411
1772740202047777800,4.62177783203125,-0.1434488296508789,0.020415306091308594,-0.02252817153930664
1772740202066549800,4.6405498046875,-0.057045936584472656,-0.03576397895812988,-0.010613158345222473
1772740202085322000,4.659322021484375,-0.03726673126220703,-0.04572892189025879,0.0007644146680831909
1772740202104094000,4.678093994140625,-0.12429332733154297,0.03610634803771973,-0.005517885088920593
1772740202122866000,4.696865966796875,-0.09415817260742188,0.08817744255065918,0.014452055096626282
1772740202141638000,4.715637939453125,0.0568389892578125,0.10114145278930664,0.03423789143562317
1772740202160410000,4.73441015625,0.04460334777832031,0.06159400939941406,0.05233471095561981
1772740202179182000,4.75318212890625,0.043931007385253906,0.1287243366241455,0.03323107957839966
1772740202197954000,4.7719541015625,0.11285400390625,0.11723160743713379,0.06846433877944946
1772740202216726300,4.790726318359375,0.1054391860961914,0.1371321678161621,0.059695810079574585
1772740202235498200,4.809498291015625,0.012110710144042969,0.12449193000793457,0.04519551992416382
1772740202254270200,4.828270263671875,-0.09876537322998047,0.12426090240478516,-0.00392933189868927
1772740202273042400,4.84704248046875,-0.06955146789550781,0.060037851333618164,-0.004444122314453125
1772740202291814400,4.865814453125,-0.04900550842285156,0.023992061614990234,-0.03488415479660034
1772740202310586400,4.88458642578125,-0.08469486236572266,-0.005801677703857422,-0.04312661290168762
1772740202329358600,4.903358642578125,-0.041034698486328125,-0.02592945098876953,-0.011688336730003357
1772740202348130600,4.922130615234375,-0.033669471740722656,-0.017095088958740234,0.007588982582092285
1772740202366902500,4.940902587890625,-0.046708106994628906,-0.015147924423217773,0.015049383044242859
1772740202385674500,4.959674560546875,-0.08171844482421875,-0.01995706558227539,0.02621711790561676
1772740202404446700,4.97844677734375,-0.09899520874023438,-0.011367559432983398,0.05063857138156891
1772740202423218700,4.99721875,-0.09620952606201172,0.08254742622375488,0.03956478834152222
1772740202441990700,5.01599072265625,-0.09330272674560547,0.09746718406677246,0.05081768333911896
1772740202460763000,5.034762939453125,-0.09748077392578125,0.07207012176513672,0.042666926980018616
1772740202479534800,5.053534912109375,-0.041367530822753906,0.06356382369995117,0.04700370132923126
1772740202498306800,5.072306884765625,-0.06836509704589844,0.04004955291748047,0.021724343299865723
1772740202517079000,5.0910791015625,-0.055367469787597656,0.0307767391204834,0.0022034496068954468
1772740202535851000,5.10985107421875,-0.06213665008544922,0.05754494667053223,-0.019155502319335938
1772740202554623000,5.128623046875,-0.032250404357910156,0.022287845611572266,0.00869596004486084
1772740202573395200,5.147395263671875,-0.0063991546630859375,-0.04978585243225098,0.028624191880226135
1772740202592167200,5.166167236328125,0.044132232666015625,-0.019356966018676758,0.03626300394535065
1772740202610939100,5.184939208984375,-0.14029884338378906,0.0526580810546875,0.015859469771385193
1772740202629711400,5.20371142578125,-0.1403970718383789,0.1712188720703125,0.016650870442390442
1772740202648483300,5.2224833984375,-0.05721855163574219,0.05553102493286133,0.04694369435310364
1772740202667255300,5.24125537109375,-0.02135181427001953,-0.04542279243469238,0.013252869248390198
1772740202686027300,5.26002734375,-0.03997993469238281,-0.06697797775268555,0.009487718343734741
1772740202704799500,5.278799560546875,-0.12606525421142578,0.020122528076171875,-0.033856481313705444
1772740202723571500,5.297571533203125,-0.04915046691894531,0.03197193145751953,0.007507428526878357
1772740202742343400,5.316343505859375,-0.024974822998046875,0.03641009330749512,0.04012295603752136
1772740202761115600,5.33511572265625,-0.022882461547851562,0.08060455322265625,0.021940365433692932
1772740202779887600,5.3538876953125,-0.05959796905517578,0.02964162826538086,0.025875091552734375
1772740202798659600,5.37265966796875,-0.03362846374511719,0.04739832878112793,-0.008528366684913635
1772740202817431800,5.391431884765625,-0.02542400360107422,0.016345739364624023,0.011688873171806335
1772740202836203800,5.410203857421875,-0.07385063171386719,0.038483381271362305,-0.0019032657146453857
1772740202854975700,5.428975830078125,-0.05382251739501953,0.0374302864074707,-0.0003370344638824463
1772740202873748000,5.447748046875,0.00649261474609375,0.027786731719970703,0.03082066774368286
1772740202892520000,5.46652001953125,0.015061378479003906,0.039513349533081055,0.047901004552841187
1772740202911292000,5.4852919921875,-0.03954505920410156,0.05895280838012695,0.04749016463756561
1772740202930064000,5.50406396484375,-0.06080913543701172,0.06974244117736816,0.05064933001995087
1772740202948836000,5.522836181640625,-0.05119800567626953,0.07814741134643555,0.05299781262874603
1772740202967608000,5.541608154296875,-0.03725147247314453,0.0799875259399414,0.048251211643218994
1772740202986380000,5.560380126953125,-0.08204364776611328,0.047933340072631836,0.023261353373527527
1772740203005152300,5.57915234375,-0.07158946990966797,0.07027125358581543,-0.01032961905002594
1772740203023924200,5.59792431640625,-0.06853294372558594,0.014698028564453125,-0.02753080427646637
1772740203042696200,5.6166962890625,-0.020958900451660156,-0.004056692123413086,-0.010978728532791138
1772740203061468400,5.635468505859375,-0.046431541442871094,-0.027784109115600586,-0.014608100056648254
1772740203080240400,5.654240478515625,-0.048119544982910156,0.03626060485839844,-0.004657357931137085
1772740203099012400,5.673012451171875,-0.015173912048339844,0.01772618293762207,0.03363892436027527
1772740203117784600,5.69178466796875,-0.05764484405517578,0.024810075759887695,0.025150403380393982
1772740203136556500,5.710556640625,-0.0853567123413086,0.02097606658935547,0.037786006927490234
1772740203155328500,5.72932861328125,-0.03737068176269531,0.05554461479187012,0.04459688067436218
1772740203174100500,5.7481005859375,-0.018413543701171875,0.07816600799560547,0.05783872306346893
1772740203192872700,5.766872802734375,-0.12270832061767578,0.04916882514953613,0.027619212865829468
1772740203211644700,5.785644775390625,-0.08367252349853516,0.03774595260620117,0.028206750750541687
1772740203230416600,5.804416748046875,-0.01174163818359375,0.04963350296020508,0.03452819585800171
1772740203249188900,5.82318896484375,0.04779624938964844,0.07351112365722656,0.015992119908332825
1772740203267960800,5.8419609375,-0.11432838439941406,0.021018266677856445,0.00011850893497467041
1772740203286732800,5.86073291015625,-0.0063877105712890625,0.025030136108398438,-0.0019001811742782593
1772740203305505000,5.879505126953125,0.060741424560546875,-0.05567002296447754,0.05473819375038147
1772740203324277000,5.898277099609375,-0.10100078582763672,0.06431698799133301,-0.022482648491859436
1772740203343049000,5.917049072265625,-0.11577510833740234,0.11698460578918457,0.012752100825309753
1772740203361821200,5.9358212890625,-0.09041213989257812,0.1105961799621582,-0.00856618583202362
1772740203380593200,5.95459326171875,-0.0000820159912109375,-0.004328727722167969,0.022020146250724792
1772740203399365000,5.973365234375,-0.054747581481933594,-0.014093399047851562,0.01659618318080902
1772740203418137300,5.992137451171875,-0.05316352844238281,0.056140899658203125,-0.024057090282440186
1772740203436909300,6.010909423828125,0.0072021484375,0.0051288604736328125,0.03706255555152893
1772740203455681300,6.029681396484375,-0.02148723602294922,0.044036865234375,0.024471178650856018
1772740203474453500,6.04845361328125,0.008414268493652344,0.04592418670654297,0.04963560402393341
1772740203493225500,6.0672255859375,-0.042835235595703125,0.06828522682189941,0.0174560546875
1772740203511997400,6.08599755859375,0.051532745361328125,0.04458808898925781,0.036970674991607666
1772740203530769700,6.104769775390625,-0.008795738220214844,0.004156827926635742,0.011371389031410217
1772740203549541600,6.123541748046875,-0.10813331604003906,0.03092789649963379,-0.01750713586807251
1772740203568313600,6.142313720703125,-0.08078861236572266,0.038117170333862305,0.0017106980085372925
1772740203587085800,6.1610859375,-0.00975799560546875,0.025089740753173828,0.026124462485313416
1772740203605857800,6.17985791015625,-0.036520957946777344,-0.0013651847839355469,0.021576449275016785
1772740203624629800,6.198629638671875,-0.01641082763671875,-0.003590106964111328,0.011852651834487915
1772740203643402000,6.217402099609375,-0.06134319305419922,-0.024236440658569336,0.022244229912757874
1772740203662174000,6.236174072265625,0.021106719970703125,0.03342771530151367,0.027167409658432007
1772740203680946000,6.25494580078125,-0.026719093322753906,0.017673969268798828,0.05754294991493225
1772740203699718000,6.2737177734375,-0.14048480987548828,0.06262350082397461,0.007747173309326172
1772740203718490000,6.292489990234375,-0.09330558776855469,0.0440218448638916,0.02202707529067993
1772740203737262000,6.311261962890625,-0.0048084259033203125,0.07265806198120117,0.03412450850009918
1772740203756034000,6.330033935546875,-0.03637409210205078,0.0427248477935791,0.014071613550186157
1772740203774806300,6.34880615234375,-0.0038137435913085938,-0.006342172622680664,0.013576582074165344
1772740203793578200,6.367578125,-0.01702404022216797,-0.0015141963958740234,-0.004385411739349365
1772740203812350200,6.38635009765625,0.014220237731933594,0.023648500442504883,0.01998741924762726
1772740203831122400,6.405122314453125,-0.01780414581298828,-0.01886463165283203,-0.010151803493499756
1772740203849894400,6.423894287109375,0.012251853942871094,-0.020800113677978516,0.003078833222389221
1772740203868666400,6.442666259765625,-0.05820178985595703,-0.005324602127075195,0.002045854926109314
1772740203887438600,6.4614384765625,-0.0687398910522461,0.05507326126098633,0.013351336121559143
1772740203906210600,6.48021044921875,-0.08915042877197266,0.04587841033935547,0.01538705825805664
1772740203924982500,6.498982421875,-0.09381103515625,0.023480653762817383,0.003831326961517334
1772740203943754800,6.517754638671875,-0.03876781463623047,-0.0012826919555664062,0.0019517838954925537
1772740203962526700,6.536526611328125,-0.05565452575683594,0.0045778751373291016,-0.023145481944084167
1772740203981298700,6.555298583984375,-0.039485931396484375,0.0016160011291503906,0.00009010732173919678
1772740204000071000,6.57407080078125,-0.048183441162109375,-0.027970075607299805,0.01961192488670349
1772740204018843000,6.5928427734375,-0.012796401977539062,-0.014029979705810547,0.00037376582622528076
1772740204037614800,6.61161474609375,-0.07444381713867188,0.04607820510864258,-0.012432977557182312
1772740204056387000,6.630386962890625,-0.025238990783691406,0.10164380073547363,-0.0014344751834869385
1772740204075159000,6.649158935546875,-0.006083488464355469,0.023396968841552734,0.006357565522193909
1772740204093931000,6.667930908203125,0.012628555297851562,-0.02086019515991211,0.012048855423927307
1772740204112703200,6.686703125,-0.02127552032470703,-0.021975994110107422,0.0021868646144866943
1772740204131475200,6.70547509765625,-0.009968757629394531,0.013055562973022461,-0.0037510693073272705
1772740204150247200,6.7242470703125,0.001018524169921875,0.0008251667022705078,0.040871113538742065
1772740204169019400,6.743019287109375,-0.040096282958984375,0.03687310218811035,0.017606914043426514
1772740204187791400,6.761791259765625,-0.10373210906982422,0.019320011138916016,0.006398558616638184
1772740204206563300,6.780563232421875,-0.07684135437011719,0.02570176124572754,0.004861980676651001
1772740204225335600,6.79933544921875,-0.01873779296875,0.006520271301269531,0.026679769158363342
1772740204244107500,6.818107421875,-0.050942420959472656,0.02506279945373535,0.014496773481369019
1772740204262879500,6.83687939453125,-0.061867713928222656,0.042180776596069336,0.015458434820175171
1772740204281651700,6.855651611328125,0.004429817199707031,0.05402946472167969,0.022108450531959534
1772740204300423700,6.874423583984375,-0.006054878234863281,0.021706342697143555,0.03140325844287872
1772740204319195600,6.893195556640625,-0.0343170166015625,0.008498191833496094,0.017516255378723145
1772740204337967900,6.9119677734375,-0.019639968872070312,0.019679546356201172,0.02832198143005371
1772740204356739800,6.93073974609375,0.03242206573486328,0.009576082229614258,0.033886536955833435
1772740204375511800,6.94951171875,0.0137481689453125,-0.007954835891723633,0.0314040333032608
1772740204394284000,6.968283935546875,-0.08626747131347656,0.03670144081115723,0.02056536078453064
1772740204413056000,6.987055908203125,-0.12633609771728516,0.0694427490234375,-0.008927509188652039
1772740204431828000,7.005827880859375,-0.08433914184570312,0.04798722267150879,0.0032975226640701294
1772740204450600200,7.02460009765625,-0.0825185775756836,0.03878521919250488,-0.028816401958465576
1772740204469372200,7.0433720703125,-0.03282356262207031,-0.0031363964080810547,-0.02130119502544403
1772740204488144100,7.06214404296875,0.03817558288574219,-0.01643538475036621,-0.013379275798797607
1772740204506916400,7.080916259765625,0.022103309631347656,-0.017952919006347656,-0.014954298734664917
1772740204525688300,7.099688232421875,-0.014505386352539062,-0.01035451889038086,-0.01545754075050354
1772740204544460300,7.118460205078125,-0.02492237091064453,0.03610944747924805,-0.0025500506162643433
1772740204563232500,7.137232421875,-0.04280376434326172,0.026857852935791016,0.017016947269439697
1772740204582004500,7.15600439453125,-0.02196216583251953,0.008780956268310547,0.03113819658756256
1772740204600776400,7.1747763671875,-0.05437469482421875,0.03221583366394043,0.03419448435306549
1772740204619548700,7.193548583984375,-0.07111835479736328,0.06261897087097168,0.03332962095737457
1772740204638320600,7.212320556640625,-0.062290191650390625,0.06090092658996582,0.03505730628967285
1772740204657092600,7.231092529296875,-0.050945281982421875,0.06354403495788574,0.03153108060359955
1772740204675864800,7.24986474609375,-0.06643486022949219,0.03662276268005371,0.022016748785972595
1772740204694636800,7.26863671875,-0.0005979537963867188,0.007966041564941406,0.0386074036359787
1772740204713408800,7.28740869140625,0.012579917907714844,-0.03632664680480957,0.06101094186306
1772740204732181000,7.306180908203125,-0.05890464782714844,0.03725242614746094,-0.008608117699623108
1772740204750953000,7.324952880859375,-0.1846904754638672,0.06237459182739258,0.002321302890777588
1772740204769725000,7.343724853515625,-0.1172342300415039,0.07856893539428711,-0.004557937383651733
1772740204788497200,7.3624970703125,0.026535987854003906,-0.011182546615600586,0.013866841793060303
1772740204807269000,7.38126904296875,0.004624366760253906,-0.04241347312927246,0.03507767617702484
1772740204826041000,7.400041015625,-0.056362152099609375,0.01485753059387207,0.0053842514753341675
1772740204844813300,7.418813232421875,-0.07665252685546875,0.027968883514404297,0.020337402820587158
1772740204863585300,7.437585205078125,-0.053460121154785156,0.06443953514099121,0.029793083667755127
1772740204882357200,7.456357177734375,0.005835533142089844,0.07100486755371094,0.055605798959732056
1772740204901129500,7.47512939453125,0.02996826171875,0.04869270324707031,0.04759290814399719
1772740204919901400,7.4939013671875,0.030008316040039062,0.03502035140991211,0.03220108151435852
1772740204938673400,7.51267333984375,-0.0138092041015625,0.017180919647216797,0.00962519645690918
1772740204957445600,7.531445556640625,-0.003966331481933594,0.02501082420349121,-0.03355337679386139
1772740204976217600,7.550217529296875,-0.017426490783691406,0.012830495834350586,0.018059685826301575
1772740204994989600,7.568989501953125,-0.0652761459350586,0.0621800422668457,-0.008502066135406494
1772740205013761800,7.58776171875,-0.042369842529296875,0.04931330680847168,0.03902210295200348
1772740205032533800,7.60653369140625,-0.007308006286621094,0.04550981521606445,0.0409221351146698
1772740205051306000,7.625305908203125,-0.05259990692138672,-0.0067996978759765625,0.03720858693122864
1772740205070078000,7.644077880859375,-0.04617023468017578,0.03212308883666992,0.047966450452804565
1772740205088850000,7.662849853515625,-0.07498645782470703,0.07318520545959473,0.04633362591266632
1772740205107622000,7.681621826171875,-0.10122489929199219,0.08298110961914062,0.013844400644302368
1772740205126394000,7.70039404296875,-0.033270835876464844,0.03260993957519531,0.0020073652267456055
1772740205145166000,7.719166015625,-0.03822517395019531,0.003107309341430664,-0.015603423118591309
1772740205163938000,7.73793798828125,-0.03395843505859375,0.008415699005126953,-0.03496985137462616
1772740205182710300,7.756710205078125,0.010446548461914062,-0.013442754745483398,-0.022628039121627808
1772740205201482200,7.775482177734375,-0.00502777099609375,-0.014785051345825195,-0.0003354698419570923
1772740205220254500,7.79425439453125,-0.02186298370361328,0.024956464767456055,-0.014932319521903992
1772740205239026400,7.8130263671875,0.009542465209960938,-0.002938985824584961,0.013095244765281677
1772740205257798400,7.83179833984375,0.05238533020019531,-0.002216339111328125,0.04763355851173401
1772740205276570600,7.850570556640625,-0.12463855743408203,0.039781808853149414,0.026402756571769714
1772740205295342600,7.869342529296875,-0.1484689712524414,0.09542250633239746,0.013217106461524963
1772740205314114600,7.888114501953125,-0.07943248748779297,0.0627140998840332,0.032597243785858154
1772740205332886800,7.90688671875,-0.06036853790283203,0.023655414581298828,0.02746601402759552
1772740205351658800,7.92565869140625,-0.0665121078491211,0.016934871673583984,0.014797285199165344
1772740205370430700,7.9444306640625,-0.12598705291748047,0.03368258476257324,-0.011839762330055237
1772740205389203000,7.963202880859375,-0.09313201904296875,0.04785871505737305,-0.033932462334632874
1772740205407975000,7.981974853515625,0.014222145080566406,-0.03356146812438965,0.011441096663475037
1772740205426747000,8.000746826171875,0.06368827819824219,-0.06482434272766113,0.01194155216217041
1772740205445519000,8.01951904296875,-0.03231239318847656,0.011218547821044922,0.002177879214286804
1772740205464291000,8.038291015625,-0.13895893096923828,0.11476802825927734,-0.007940724492073059
1772740205483063000,8.05706298828125,-0.04001331329345703,0.09585356712341309,0.018512263894081116
1772740205501835300,8.075835205078125,0.04117584228515625,0.014174938201904297,0.018143311142921448
1772740205520607200,8.094607177734375,0.014965057373046875,-0.034657955169677734,-0.003225088119506836
1772740205539379200,8.113379150390625,-0.01430511474609375,-0.03404116630554199,-0.018106788396835327
1772740205558151400,8.1321513671875,-0.05434131622314453,0.0055294036865234375,0.0030546337366104126
1772740205576923400,8.15092333984375,-0.05446052551269531,0.06003999710083008,0.015049472451210022
1772740205595695400,8.1696953125,-0.04207897186279297,0.06457138061523438,0.0103682279586792
1772740205614467600,8.188467529296876,-0.06488800048828125,0.028933286666870117,0.016674980521202087
1772740205633239600,8.207239501953126,0.0010805130004882812,0.055357933044433594,0.027924954891204834
1772740205652011800,8.22601171875,-0.0011196136474609375,0.028025388717651367,0.019483014941215515
1772740205670783700,8.24478369140625,-0.10867881774902344,0.03326725959777832,-0.0063581764698028564
1772740205689555700,8.2635556640625,-0.025900840759277344,0.05883288383483887,0.00658184289932251
1772740205708327700,8.28232763671875,-0.010650634765625,0.03700542449951172,0.016916334629058838
1772740205727100000,8.301099853515625,-0.015359878540039062,-0.008199453353881836,0.012097090482711792
1772740205745872000,8.319871826171875,-0.027176856994628906,-0.040703773498535156,0.033363744616508484
1772740205764644000,8.33864404296875,-0.034637451171875,0.021532297134399414,0.007308110594749451
1772740205783416000,8.357416015625,-0.05120277404785156,-0.006895780563354492,0.02960158884525299
1772740205802188000,8.37618798828125,-0.10422420501708984,0.018007755279541016,0.003002569079399109
1772740205820960300,8.394960205078124,-0.06910991668701172,0.022432804107666016,0.0031593292951583862
1772740205839732200,8.413732177734374,-0.058116912841796875,0.010535478591918945,-0.012312456965446472
1772740205858504200,8.432504150390624,-0.04483222961425781,0.033289432525634766,-0.020158514380455017
1772740205877276200,8.451276123046876,-0.010092735290527344,0.01564645767211914,-0.009708359837532043
1772740205896048400,8.47004833984375,0.013535499572753906,-0.0021202564239501953,-0.013133659958839417
1772740205914826200,8.488826171875,0.05230712890625,-0.010589361190795898,0.00631009042263031
1772740205933598500,8.507598388671875,-0.021617889404296875,0.00006794929504394531,-0.0031737089157104492
1772740205952370400,8.526370361328125,-0.024695396423339844,0.011665821075439453,0.013380691409111023
1772740205971142400,8.545142333984375,-0.09133434295654297,0.015929460525512695,0.01785188913345337
1772740205989914600,8.56391455078125,-0.09978103637695312,0.04058265686035156,0.035673558712005615
1772740206008686600,8.5826865234375,-0.09265327453613281,0.03840970993041992,0.03245729207992554
1772740206027458600,8.60145849609375,-0.0884866714477539,0.011072158813476562,0.03232066333293915
1772740206046230800,8.620230712890624,-0.03899097442626953,-0.00019121170043945312,0.0210648775100708
1772740206065002800,8.639002685546876,-0.07061767578125,0.009707927703857422,0.0032243281602859497
1772740206083775000,8.65777490234375,-0.058341026306152344,0.01861262321472168,-0.0168275386095047
1772740206102547000,8.676546875,-0.028095245361328125,-0.029003620147705078,-0.003590106964111328
1772740206121319000,8.69531884765625,0.045668601989746094,-0.06282615661621094,0.028372183442115784
1772740206140091000,8.7140908203125,0.0054721832275390625,-0.0444025993347168,0.023030772805213928
1772740206158863000,8.732863037109375,-0.18395423889160156,0.062242746353149414,-0.00016064941883087158
1772740206177635000,8.751635009765625,-0.1933584213256836,0.14588117599487305,0.0063829123973846436
1772740206196407000,8.770406982421875,-0.049739837646484375,0.05177426338195801,0.03362128138542175
1772740206215179300,8.78917919921875,0.006604194641113281,-0.030235767364501953,0.024286597967147827
1772740206233951200,8.807951171875,0.03997516632080078,-0.019257545471191406,0.0028466731309890747
1772740206252723200,8.82672314453125,0.02795124053955078,-0.013184309005737305,-0.008626073598861694
1772740206271495400,8.845495361328124,0.02173900604248047,-0.012845754623413086,0.0004122406244277954
1772740206290267400,8.864267333984374,0.05270957946777344,0.09545516967773438,0.0191204696893692
1772740206309039400,8.883039306640624,0.04384136199951172,0.06292390823364258,0.022216975688934326
1772740206327811600,8.9018115234375,0.0013418197631835938,0.03487229347229004,-2.384185791015625e-7
1772740206346583600,8.92058349609375,0.038580894470214844,-0.017710208892822266,0.02275720238685608
1772740206365355500,8.93935546875,-0.042636871337890625,0.003844738006591797,0.0036970824003219604
1772740206384127500,8.95812744140625,-0.12230205535888672,0.05936837196350098,0.009915202856063843
1772740206402899700,8.976899658203125,-0.05351066589355469,0.05091404914855957,0.045219555497169495
1772740206421671700,8.995671630859375,0.02571582794189453,0.02076864242553711,0.07119271159172058
1772740206440443600,9.014443603515625,-0.036357879638671875,-0.006324052810668945,0.06554052233695984
1772740206459216000,9.0332158203125,-0.1210622787475586,0.0050029754638671875,0.030073702335357666
1772740206477987800,9.05198779296875,-0.10903549194335938,0.01768779754638672,0.017361432313919067
1772740206496759800,9.070759765625,-0.10731029510498047,0.016174793243408203,-0.0075604915618896484
1772740206515532000,9.089531982421875,-0.06437969207763672,-0.002650022506713867,-0.019294261932373047
1772740206534304000,9.108303955078124,-0.024747848510742188,-0.005181312561035156,-0.03915773332118988
1772740206553076000,9.127075927734374,0.020109176635742188,-0.015281200408935547,-0.036430224776268005
1772740206571848200,9.14584814453125,0.006525993347167969,-0.019927263259887695,-0.044737979769706726
1772740206590620200,9.1646201171875,0.04788780212402344,-0.022533893585205078,-0.03250952064990997
1772740206609392000,9.18339208984375,0.046517372131347656,0.0017423629760742188,-0.008140414953231812
1772740206628164400,9.202164306640626,0.04324626922607422,-0.006201267242431641,0.01250988245010376
1772740206646936300,9.220936279296875,-0.07806587219238281,0.03033447265625,0.016390278935432434
1772740206665708300,9.239708251953125,-0.07981204986572266,0.04621124267578125,0.03489546477794647
1772740206684480300,9.258480224609375,-0.054119110107421875,0.0320286750793457,0.03826966881752014
1772740206703252500,9.27725244140625,-0.05777263641357422,0.027908802032470703,0.031106650829315186
1772740206722024400,9.2960244140625,-0.07236957550048828,0.03992199897766113,0.04398304224014282
1772740206740796400,9.31479638671875,-0.10095977783203125,0.035332679748535156,0.016044527292251587
1772740206759568600,9.333568603515625,-0.10706138610839844,0.0139923095703125,-0.006623491644859314
1772740206778340600,9.352340576171875,-0.057860374450683594,-0.004747152328491211,-0.023093268275260925
1772740206797112600,9.371112548828124,-0.018169403076171875,-0.07724738121032715,-0.013810843229293823
1772740206815884800,9.389884765625,0.05995941162109375,-0.10477781295776367,0.001972973346710205
1772740206834656800,9.40865673828125,-0.012625694274902344,-0.033228397369384766,-0.015532240271568298
1772740206853428700,9.4274287109375,-0.15420246124267578,0.04925990104675293,-0.021855324506759644
1772740206872200700,9.44620068359375,-0.03963661193847656,0.08603596687316895,0.010242685675621033
1772740206890973000,9.464972900390626,0.041153907775878906,-0.020961761474609375,0.047307416796684265
1772740206909745000,9.483744873046875,-0.012296676635742188,-0.030284881591796875,0.03665696084499359
1772740206928516900,9.502516845703125,-0.06134605407714844,0.03745841979980469,0.018384531140327454
1772740206947289000,9.5212890625,-0.03176403045654297,0.07613968849182129,0.01758982241153717
1772740206966061000,9.54006103515625,0.03949451446533203,0.05414104461669922,0.041665852069854736
1772740206984833000,9.5588330078125,-0.016889572143554688,0.04896807670593262,0.03467181324958801
1772740207003605000,9.57760498046875,-0.04954242706298828,0.07272839546203613,-0.016819670796394348
1772740207022377200,9.596377197265625,0.040986061096191406,-0.001069784164428711,0.018115535378456116
1772740207041149200,9.615149169921875,-0.00897216796875,-0.027797698974609375,-0.010125130414962769
1772740207059921200,9.633921142578124,-0.04050445556640625,-0.029352426528930664,-0.011089369654655457
1772740207078693400,9.652693359375,-0.036286354064941406,0.03751564025878906,-0.013850584626197815
1772740207097465300,9.67146533203125,-0.0016584396362304688,0.025003671646118164,0.007845014333724976
1772740207116237300,9.6902373046875,-0.037841796875,-0.03881573677062988,0.04410475492477417
1772740207135009500,9.709009521484376,0.01540374755859375,0.00802469253540039,0.04019010066986084
1772740207153781500,9.727781494140626,0.07648754119873047,0.01833486557006836,0.06809709966182709
1772740207172553500,9.746553466796875,0.0822134017944336,-0.006943464279174805,0.10629624128341675
1772740207191325400,9.765325439453125,-0.23474407196044922,-0.008152246475219727,0.042335525155067444
1772740207210097700,9.78409765625,-0.6430530548095703,0.12561583518981934,-0.15519872307777405
1772740207228869600,9.80286962890625,-0.5556545257568359,0.017343759536743164,-0.16759426891803741
1772740207247641600,9.8216416015625,0.3262481689453125,-0.2396998405456543,0.11711488664150238
1772740207266413800,9.840413818359375,0.3998432159423828,-0.0019860267639160156,0.015869542956352234
1772740207285185800,9.859185791015625,0.2839202880859375,-0.0618443489074707,0.07822811603546143
1772740207303957800,9.877957763671875,-0.0023069381713867188,-0.04232192039489746,0.0012068897485733032
