time,seconds_elapsed,z,y,x
1772740197579029500,0.153029541015625,0.0006108472589403391,-0.03451287001371384,0.02764083817601204
1772740197607187500,0.1811875,0.009773556143045425,-0.006413896102458239,-0.00259610079228878
1772740197625959400,0.19995947265625,0.017714571207761765,-0.0068720318377017975,0.007330167107284069
1772740197644731400,0.2187314453125,0.014049487188458443,-0.01511846948415041,0.018630841746926308
1772740197663503600,0.237503662109375,0.014049487188458443,-0.01572931744158268,0.02244863659143448
1772740197682275600,0.256275634765625,0.017714571207761765,-0.012980503961443901,0.0038177953101694584
1772740197701047600,0.275047607421875,0.015271181240677834,-0.032069481909275055,-0.01511846948415041
1772740197719819500,0.293819580078125,0.014049487188458443,-0.032069481909275055,-0.013285927474498749
1772740197738591500,0.312591552734375,0.009773556143045425,-0.0325276181101799,-0.005803049076348543
1772740197757363700,0.33136376953125,-0.004275931045413017,-0.04184303805232048,-0.019241688773036003
1772740197776135700,0.3501357421875,-0.014049487188458443,-0.04016320779919624,-0.028557108715176582
1772740197794907600,0.36890771484375,-0.013438640162348747,-0.02886253222823143,-0.004581354558467865
1772740197813679600,0.3876796875,-0.00916270911693573,-0.019088976085186005,0.003970507066696882
1772740197832451600,0.40645166015625,0.0030542362947016954,-0.01252236869186163,-0.0036650835536420345
1772740197851223800,0.425223876953125,0.006108472589403391,-0.029626091942191124,-0.01695101149380207
1772740197869995800,0.443995849609375,0.0012216945178806782,-0.028404397889971733,-0.008399149402976036
1772740197888767700,0.462767822265625,-0.005497625097632408,-0.029320668429136276,0.008399149402976036
1772740197907539700,0.481539794921875,-0.007330167107284069,-0.018630841746926308,0.02748812735080719
1772740197926311700,0.500311767578125,-0.004886778071522713,-0.007177455350756645,0.020463382825255394
1772740197945084000,0.519083984375,0.006719320081174374,0.01954711228609085,0.023059483617544174
1772740197963856000,0.53785595703125,0.011606098152697086,0.0038177953101694584,0.028251685202121735
1772740197982627800,0.5566279296875,0.0036650835536420345,-0.011147962883114815,0.008093725889921188
1772740198001399800,0.57539990234375,0.007330167107284069,0.0016798300202935934,-0.00015271181473508477
1772740198020171800,0.594171875,0.018936265259981155,0.007177455350756645,0.002748812548816204
1772740198038944000,0.612944091796875,0.04092676565051079,0.0035123717971146107,0.01038440316915512
1772740198057716000,0.631716064453125,0.03787253051996231,-0.030389651656150818,0.020157959312200546
1772740198076488000,0.650488037109375,0.034818295389413834,-0.020310672000050545,0.04230117425322533
1772740198095260000,0.669260009765625,0.02626643143594265,-0.025502873584628105,0.05787777900695801
1772740198114031900,0.688031982421875,0.01954711228609085,-0.014660334214568138,0.01435491070151329
1772740198132804000,0.70680419921875,0.012216945178806782,-0.004886778071522713,-0.02489202655851841
1772740198151576000,0.725576171875,0.009773556143045425,-0.01695101149380207,-0.019088976085186005
1772740198170348000,0.74434814453125,0.006719320081174374,-0.027793550863862038,0.02886253222823143
1772740198189120000,0.7631201171875,0.0030542362947016954,-0.037261683493852615,0.047646086663007736
1772740198207892000,0.78189208984375,0.020157959312200546,-0.022601349279284477,0.009468132629990578
1772740198226664200,0.800664306640625,0.02626643143594265,-0.007177455350756645,-0.018019994720816612
1772740198245436200,0.819436279296875,0.02626643143594265,0.01038440316915512,-0.020157959312200546
1772740198264208100,0.8382080078125,0.023823043331503868,0.017409147694706917,-0.0016798300202935934
1772740198282980000,0.85697998046875,0.028098974376916885,0.009773556143045425,0.021990500390529633
1772740198301752000,0.875751953125,0.02626643143594265,-0.016645587980747223,0.037261683493852615
1772740198320524300,0.894524169921875,0.01832541823387146,-0.011453386396169662,0.024281177669763565
1772740198339296300,0.913296142578125,0.009773556143045425,-0.0050394898280501366,0.0010689827613532543
1772740198358068200,0.932068115234375,0,-0.015576604753732681,-0.00916270911693573
1772740198376840200,0.950840087890625,-0.01038440316915512,-0.03558185324072838,-0.004428642801940441
1772740198395612200,0.969612060546875,-0.005497625097632408,-0.028557108715176582,0.02076880633831024
1772740198414384000,0.988384033203125,0.006719320081174374,-0.00259610079228878,0.0456608310341835
1772740198433156400,1.00715625,-0.006108472589403391,-0.026724567636847496,0.017561858519911766
1772740198451928300,1.02592822265625,-0.02504473738372326,-0.04016320779919624,-0.02733541466295719
1772740198470700300,1.0447001953125,-0.025655584409832954,-0.017409147694706917,-0.007941014133393764
1772740198489472300,1.06347216796875,-0.012216945178806782,-0.008093725889921188,0.0397050715982914
1772740198508244500,1.082244384765625,-0.004275931045413017,-0.01847812905907631,0.04352286830544472
1772740198527016400,1.101016357421875,0.01038440316915512,-0.0198525357991457,0.025502873584628105
1772740198545788400,1.119788330078125,0.005497625097632408,-0.014965757727622986,0.029778804630041122
1772740198564560400,1.138560302734375,-0.0036650835536420345,-0.010689826682209969,0.033443886786699295
1772740198583332600,1.15733251953125,-0.01832541823387146,-0.010842538438737392,0.018630841746926308
1772740198602104600,1.1761044921875,-0.007941014133393764,-0.0030542362947016954,0.012216945178806782
1772740198620876500,1.19487646484375,0.0030542362947016954,-0.0035123717971146107,0.02092151902616024
1772740198639648500,1.2136484375,0.010995250195264816,-0.004734066314995289,0.022754060104489326
1772740198658420500,1.23242041015625,0.004886778071522713,-0.016034740954637527,0.00259610079228878
1772740198677192700,1.251192626953125,0.0030542362947016954,-0.02351761981844902,-0.012216945178806782
1772740198695964700,1.269964599609375,0.004275931045413017,-0.009468132629990578,-0.0030542362947016954
1772740198714736600,1.288736572265625,0.004886778071522713,-0.006719320081174374,0.016034740954637527
1772740198733508600,1.307508544921875,0.01038440316915512,-0.013744063675403595,0.029167955741286278
1772740198752280600,1.326280517578125,0.01954711228609085,-0.005344913341104984,0.026571854948997498
1772740198771052800,1.345052734375,0.013438640162348747,0.0030542362947016954,0.01588202826678753
1772740198789824800,1.36382470703125,-0.007941014133393764,-0.009009997360408306,0.019241688773036003
1772740198808596700,1.3825966796875,-0.012216945178806782,-0.013285927474498749,0.018630841746926308
1772740198827368700,1.40136865234375,-0.0018325417768210173,-0.006108472589403391,0.007941014133393764
1772740198846140700,1.420140625,0.004275931045413017,0.0016798300202935934,0.007177455350756645
1772740198864913000,1.438912841796875,0.004275931045413017,-0.005497625097632408,0.016034740954637527
1772740198883684900,1.457684814453125,0.0024433890357613564,-0.010689826682209969,0.030389651656150818
1772740198902456800,1.476456787109375,0.011606098152697086,-0.005803049076348543,0.03023693896830082
1772740198921228800,1.495228759765625,0.021379653364419937,0.0006108472589403391,0.016492875292897224
1772740198940000800,1.514000732421875,0.014660334214568138,0.004123218823224306,0.0021379655227065086
1772740198958773000,1.53277294921875,0.012827792204916477,0.0022906772792339325,0.004123218823224306
1772740198977545000,1.551544921875,0.010995250195264816,-0.009009997360408306,0.018630841746926308
1772740198996317000,1.57031689453125,0.01038440316915512,-0.00519220158457756,0.032069481909275055
1772740199015089000,1.5890888671875,0.006108472589403391,-0.008246437646448612,0.029626091942191124
1772740199033860900,1.60786083984375,-0.0036650835536420345,-0.007941014133393764,0.008704573847353458
1772740199052633000,1.626633056640625,-0.006719320081174374,-0.02092151902616024,-0.0029015245381742716
1772740199071405000,1.645405029296875,-0.0018325417768210173,-0.005497625097632408,0.011147962883114815
1772740199090177000,1.664177001953125,0.0012216945178806782,0.016034740954637527,0.023059483617544174
1772740199108949000,1.682948974609375,-0.017714571207761765,-0.02641914412379265,0.00030542362947016954
1772740199127721200,1.70172119140625,-0.02626643143594265,-0.018936265259981155,-0.030695075169205666
1772740199146493200,1.7204931640625,-0.01588202826678753,-0.005955760832875967,-0.015576604753732681
1772740199165265200,1.73926513671875,-0.005497625097632408,-0.023823043331503868,0.008857285603880882
1772740199184037000,1.758037109375,0.00916270911693573,-0.004734066314995289,0.01847812905907631
1772740199202809000,1.77680908203125,0.015271181240677834,-0.0018325417768210173,0.015271181240677834
1772740199221581300,1.795581298828125,0.015271181240677834,-0.011147962883114815,0.005650337319821119
1772740199240353300,1.814353271484375,0.0006108472589403391,-0.01832541823387146,0.011300674639642239
1772740199259125200,1.833125244140625,-0.013438640162348747,-0.02733541466295719,0.01954711228609085
1772740199277897200,1.851897216796875,-0.0024433890357613564,0.0007635590736754239,0.027029991149902344
1772740199306055400,1.880055419921875,0.0036650835536420345,0.016034740954637527,0.029320668429136276
1772740199324827400,1.898827392578125,-0.0030542362947016954,-0.011911521665751934,0.028557108715176582
1772740199343599400,1.917599365234375,-0.0030542362947016954,-0.01252236869186163,0.026724567636847496
1772740199362371300,1.936371337890625,-0.006719320081174374,-0.0065666078589856625,0.02229592576622963
1772740199381143600,1.9551435546875,-0.005497625097632408,0.0018325417768210173,0.012216945178806782
1772740199399915500,1.97391552734375,-0.005497625097632408,-0.001374406274408102,0.0065666078589856625
1772740199418687500,1.9926875,-0.0024433890357613564,-0.0022906772792339325,0.023975754156708717
1772740199437459500,2.01145947265625,0.0018325417768210173,0.006261184345930815,0.028251685202121735
1772740199456231400,2.0302314453125,-0.0006108472589403391,0.0030542362947016954,0.012827792204916477
1772740199475003600,2.049003662109375,0.0018325417768210173,-0.00992626789957285,-0.0012216945178806782
1772740199493775600,2.067775634765625,0.011606098152697086,-0.01252236869186163,-0.005497625097632408
1772740199512547600,2.086547607421875,0.01588202826678753,-0.010689826682209969,-0.010537114925682545
1772740199531319600,2.105319580078125,0.012216945178806782,-0.019394399598240852,-0.01588202826678753
1772740199550091800,2.124091796875,0.008551862090826035,-0.023975754156708717,-0.03497100621461868
1772740199568863700,2.14286376953125,0.007941014133393764,-0.01832541823387146,-0.032069481909275055
1772740199587635700,2.1616357421875,0.0012216945178806782,-0.018019994720816612,-0.014660334214568138
1772740199606407700,2.18040771484375,0.006108472589403391,-0.013285927474498749,-0.016034740954637527
1772740199625179600,2.1991796875,0.009773556143045425,-0.0036650835536420345,-0.023059483617544174
1772740199643951900,2.217951904296875,0.014660334214568138,-0.0012216945178806782,-0.02244863659143448
1772740199662723800,2.236723876953125,-0.004275931045413017,-0.009468132629990578,-0.0018325417768210173
1772740199681495800,2.255495849609375,-0.0018325417768210173,-0.009009997360408306,0.016034740954637527
1772740199700267800,2.274267822265625,-0.006719320081174374,-0.014202198944985867,0.0050394898280501366
1772740199719040000,2.2930400390625,-0.006719320081174374,-0.016034740954637527,0.0038177953101694584
1772740199737812000,2.31181201171875,0.0018325417768210173,0.0012216945178806782,0.01710372418165207
1772740199756584000,2.330583984375,0.007941014133393764,0.0030542362947016954,0.016492875292897224
1772740199775356000,2.34935595703125,-0.006719320081174374,-0.017714571207761765,-0.02092151902616024
1772740199794128100,2.368128173828125,-0.020157959312200546,-0.014202198944985867,-0.033443886786699295
1772740199812900000,2.386900146484375,-0.01710372418165207,-0.007635590620338917,-0.0068720318377017975
1772740199831672000,2.405672119140625,0.008551862090826035,-0.0009162708884105086,0.03023693896830082
1772740199850444000,2.424444091796875,0.012827792204916477,-0.01038440316915512,0.017409147694706917
1772740199869216300,2.44321630859375,0.015271181240677834,-0.0007635590736754239,0.0004581354442052543
1772740199887988200,2.46198828125,0.004886778071522713,-0.0006108472589403391,0.009773556143045425
1772740199906760200,2.48076025390625,0.0012216945178806782,0.009620844386518002,0.004581354558467865
1772740199925532200,2.4995322265625,0,0.010995250195264816,-0.01954711228609085
1772740199944304400,2.518304443359375,-0.004275931045413017,0.0050394898280501366,-0.012064233422279358
1772740199963076400,2.537076416015625,-0.005497625097632408,0.010995250195264816,0.021379653364419937
1772740199981848300,2.555848388671875,-0.006108472589403391,-0.005344913341104984,0.025350160896778107
1772740200000620300,2.574620361328125,-0.004886778071522713,-0.003970507066696882,-0.0068720318377017975
1772740200019392500,2.593392578125,-0.0036650835536420345,-0.007330167107284069,-0.029778804630041122
1772740200038164500,2.61216455078125,-0.0024433890357613564,-0.01572931744158268,-0.016645587980747223
1772740200056936400,2.6309365234375,0.007330167107284069,-0.01725643500685692,0.0050394898280501366
1772740200075708400,2.64970849609375,0.011606098152697086,-0.0024433890357613564,0.016645587980747223
1772740200094480600,2.668480712890625,0.010995250195264816,0.008551862090826035,0.010842538438737392
1772740200113252600,2.687252685546875,0.008551862090826035,0.0016798300202935934,0.007788302376866341
1772740200132024600,2.706024658203125,0.0036650835536420345,-0.0024433890357613564,0.01038440316915512
1772740200150796500,2.724796630859375,-0.006719320081174374,-0.009315420873463154,0.0012216945178806782
1772740200169568800,2.74356884765625,-0.008551862090826035,0.0007635590736754239,-0.016340164467692375
1772740200188340700,2.7623408203125,-0.008551862090826035,-0.005955760832875967,-0.011147962883114815
1772740200207112700,2.78111279296875,-0.0018325417768210173,0.0030542362947016954,0.010231691412627697
1772740200225884700,2.799884765625,-0.006719320081174374,0.0022906772792339325,0.005955760832875967
1772740200244657000,2.818656982421875,-0.006719320081174374,0.0004581354442052543,0.007941014133393764
1772740200263428900,2.837428955078125,-0.007941014133393764,-0.010995250195264816,0.010537114925682545
1772740200282200800,2.856200927734375,-0.0012216945178806782,-0.005497625097632408,0.01038440316915512
1772740200300972800,2.874972900390625,-0.004275931045413017,0.00015271181473508477,-0.009468132629990578
1772740200319745000,2.8937451171875,-0.006108472589403391,-0.0012216945178806782,-0.028098974376916885
1772740200338517000,2.91251708984375,-0.007330167107284069,-0.008246437646448612,-0.004275931045413017
1772740200357289000,2.9312890625,-0.0036650835536420345,0.011147962883114815,0.02626643143594265
1772740200376061000,2.95006103515625,-0.005497625097632408,0.03023693896830082,0.006719320081174374
1772740200394833200,2.968833251953125,-0.010995250195264816,0.014660334214568138,-0.025197450071573257
1772740200413605000,2.987605224609375,-0.007941014133393764,0.006261184345930815,-0.009620844386518002
1772740200432377000,3.006377197265625,0.004275931045413017,0.012827792204916477,0.01695101149380207
1772740200451149000,3.025149169921875,0,-0.00030542362947016954,-0.005803049076348543
1772740200469921300,3.04392138671875,-0.005497625097632408,-0.002748812548816204,-0.038483377546072006
1772740200488693200,3.062693359375,-0.012827792204916477,-0.0050394898280501366,-0.03420744836330414
1772740200507465200,3.08146533203125,0,-0.0022906772792339325,-0.010689826682209969
1772740200526237200,3.1002373046875,0.01038440316915512,-0.002748812548816204,-0.007024743594229221
1772740200545009400,3.119009521484375,0.01954711228609085,-0.010689826682209969,-0.00992626789957285
1772740200563781400,3.137781494140625,0.01588202826678753,-0.0009162708884105086,-0.00015271181473508477
1772740200582553300,3.15655322265625,0.007941014133393764,0.0068720318377017975,0.023823043331503868
1772740200601325600,3.17532568359375,-0.0036650835536420345,-0.0012216945178806782,0.013438640162348747
1772740200620097500,3.19409765625,-0.0012216945178806782,0.005803049076348543,-0.00519220158457756
1772740200638869500,3.212869384765625,-0.009773556143045425,-0.003359660040587187,-0.010689826682209969
1772740200657641500,3.231641357421875,-0.005497625097632408,-0.004123218823224306,-0.01435491070151329
1772740200676413700,3.25041357421875,-0.007330167107284069,-0.004581354558467865,-0.0050394898280501366
1772740200695185700,3.269185546875,-0.005497625097632408,-0.0050394898280501366,0.0006108472589403391
1772740200713957600,3.28795751953125,0.010995250195264816,-0.00030542362947016954,-0.008857285603880882
1772740200732729600,3.3067294921875,0.01588202826678753,-0.0065666078589856625,-0.018019994720816612
1772740200751501800,3.325501708984375,0.01832541823387146,0.0009162708884105086,-0.00519220158457756
1772740200770273800,3.344273681640625,0.012827792204916477,-0.0007635590736754239,0.007941014133393764
1772740200789045800,3.363045654296875,0.014660334214568138,0.0036650835536420345,0.013285927474498749
1772740200807817700,3.381817626953125,0.010995250195264816,0.005955760832875967,0.008399149402976036
1772740200826590000,3.40058984375,0.006108472589403391,0.0006108472589403391,0.00916270911693573
1772740200845362000,3.41936181640625,-0.0018325417768210173,0.0004581354442052543,0.0004581354442052543
1772740200864134000,3.4381337890625,-0.004275931045413017,0.010689826682209969,-0.0065666078589856625
1772740200882905900,3.45690576171875,-0.005497625097632408,-0.008704573847353458,0.0036650835536420345
1772740200901678000,3.475677978515625,-0.0018325417768210173,-0.007177455350756645,0.01969982497394085
1772740200920450000,3.494449951171875,0.0012216945178806782,0.00259610079228878,0.022754060104489326
1772740200939222000,3.513221923828125,-0.004886778071522713,0.014965757727622986,0.001985253533348441
1772740200957994000,3.531993896484375,-0.0012216945178806782,0.0004581354442052543,0.0022906772792339325
1772740200976766200,3.55076611328125,-0.0006108472589403391,-0.0022906772792339325,0.022754060104489326
1772740200995538200,3.5695380859375,-0.0006108472589403391,-0.0035123717971146107,0.025350160896778107
1772740201014310100,3.58831005859375,-0.0024433890357613564,0.010689826682209969,0.0021379655227065086
1772740201033082400,3.607082275390625,-0.0018325417768210173,0.021532366052269936,-0.01175880990922451
1772740201051854300,3.625854248046875,0.0018325417768210173,0.009009997360408306,0.007177455350756645
1772740201070626300,3.644626220703125,-0.0018325417768210173,0.004581354558467865,0.02886253222823143
1772740201089398300,3.663398193359375,-0.004886778071522713,-0.0032069480512291193,0.0036650835536420345
1772740201108170500,3.68217041015625,-0.0036650835536420345,-0.01588202826678753,-0.025350160896778107
1772740201126942500,3.7009423828125,0.007941014133393764,0.0035123717971146107,0.008399149402976036
1772740201145714400,3.71971435546875,0.0024433890357613564,0.0022906772792339325,0.0393996499478817
1772740201164486700,3.738486572265625,-0.017714571207761765,-0.027029991149902344,0.0009162708884105086
1772740201183258600,3.757258544921875,-0.02626643143594265,-0.009468132629990578,-0.04459185153245926
1772740201202030600,3.776030517578125,-0.004275931045413017,0.01511846948415041,-0.023364907130599022
1772740201220802600,3.794802490234375,-0.0030542362947016954,0.008093725889921188,0.026877280324697495
1772740201239574800,3.81357470703125,-0.008551862090826035,-0.008246437646448612,0.0328330397605896
1772740201258346800,3.8323466796875,0,-0.006719320081174374,0.017867282032966614
1772740201277118700,3.85111865234375,0.004275931045413017,0.0018325417768210173,0.010995250195264816
1772740201295891000,3.869890869140625,-0.0006108472589403391,0.010995250195264816,0.01695101149380207
1772740201314663000,3.888662841796875,-0.016492875292897224,-0.0010689827613532543,0.024586603045463562
1772740201333435000,3.907434814453125,-0.01954711228609085,-0.007024743594229221,0.027793550863862038
1772740201352206800,3.926206787109375,-0.006108472589403391,0.021990500390529633,0.02244863659143448
1772740201370978800,3.944978759765625,0.0012216945178806782,0.024281177669763565,0.011147962883114815
1772740201389751000,3.9637509765625,0.004275931045413017,-0.006261184345930815,0.0036650835536420345
1772740201408523000,3.98252294921875,0.010995250195264816,-0.021837789565324783,0.016340164467692375
1772740201427295000,4.001294921875,0.018936265259981155,-0.02076880633831024,0.009468132629990578
1772740201446067200,4.020067138671875,0.023212196305394173,-0.01725643500685692,-0.0004581354442052543
1772740201464839200,4.038839111328125,0.024433890357613564,-0.008093725889921188,0.0036650835536420345
1772740201483611100,4.057611083984375,0.02504473738372326,-0.011147962883114815,0.0030542362947016954
1772740201502383400,4.07638330078125,0.02504473738372326,-0.00519220158457756,-0.006261184345930815
1772740201521155300,4.0951552734375,0.01832541823387146,0.007024743594229221,0.0015271181473508477
1772740201539927300,4.11392724609375,0.010995250195264816,-0.001374406274408102,0.00916270911693573
1772740201558699300,4.13269921875,0.01038440316915512,-0.014660334214568138,0.00992626789957285
1772740201577471500,4.151471435546875,0.012827792204916477,0.0006108472589403391,0.01038440316915512
1772740201596243500,4.170243408203125,0.01832541823387146,-0.0012216945178806782,0.012827792204916477
1772740201615015400,4.189015380859375,0.013438640162348747,-0.005344913341104984,0.02107422985136509
1772740201633787600,4.20778759765625,0.00916270911693573,-0.016798298805952072,0.024281177669763565
1772740201652559600,4.2265595703125,0.0012216945178806782,-0.009009997360408306,0.024128466844558716
1772740201671331600,4.24533154296875,0.012216945178806782,-0.0004581354442052543,0.02641914412379265
1772740201690103800,4.264103759765625,0.012827792204916477,0.0007635590736754239,0.021532366052269936
1772740201708875800,4.282875732421875,0.007330167107284069,-0.010995250195264816,0.01435491070151329
1772740201727647700,4.301647705078125,0.0036650835536420345,-0.01038440316915512,0.008093725889921188
1772740201746419700,4.320419677734375,0.006108472589403391,-0.012216945178806782,0.008704573847353458
1772740201765192000,4.33919189453125,0.004886778071522713,-0.020463382825255394,-0.007788302376866341
1772740201783964000,4.3579638671875,0.008551862090826035,-0.013896775431931019,-0.01725643500685692
1772740201802735900,4.37673583984375,0.006108472589403391,0.0036650835536420345,0.014049487188458443
1772740201821507800,4.3955078125,0.01038440316915512,-0.016492875292897224,0.0068720318377017975
1772740201840280000,4.414280029296875,0.01710372418165207,-0.02641914412379265,-0.003970507066696882
1772740201859052000,4.433052001953125,0.02076880633831024,-0.0036650835536420345,0.011606098152697086
1772740201877824000,4.451823974609375,0.02504473738372326,0.001374406274408102,0.027029991149902344
1772740201896596200,4.47059619140625,0.006719320081174374,-0.024433890357613564,0.013285927474498749
1772740201915368200,4.4893681640625,-0.01038440316915512,-0.009009997360408306,-0.020463382825255394
1772740201934140200,4.50814013671875,-0.0030542362947016954,0.014813045971095562,-0.007330167107284069
1772740201952912400,4.526912353515625,0.004275931045413017,-0.001374406274408102,0.008551862090826035
1772740201971684400,4.545684326171875,0.012827792204916477,-0.00916270911693573,0.014813045971095562
1772740201990456300,4.564456298828125,0.011606098152697086,-0.013896775431931019,0.02244863659143448
1772740202009228500,4.583228515625,0.01588202826678753,-0.005497625097632408,0.012980503961443901
1772740202028000500,4.60200048828125,0.01588202826678753,0.0010689827613532543,0.007788302376866341
1772740202046772500,4.6207724609375,-0.0006108472589403391,-0.014049487188458443,0.006261184345930815
1772740202065544400,4.63954443359375,0.005497625097632408,-0.020310672000050545,0.001985253533348441
1772740202084316700,4.658316650390625,0.018936265259981155,0.007788302376866341,0.003970507066696882
1772740202103088600,4.677088623046875,0.02870982140302658,0.0021379655227065086,-0.005803049076348543
1772740202121860600,4.695860595703125,0.024433890357613564,-0.01695101149380207,-0.02214321307837963
1772740202140632600,4.714632568359375,0.017714571207761765,-0.013285927474498749,-0.022906772792339325
1772740202159404800,4.73340478515625,0.020157959312200546,0.003970507066696882,-0.006413896102458239
1772740202178176800,4.7521767578125,0.01954711228609085,-0.014049487188458443,0.011911521665751934
1772740202196948700,4.77094873046875,0.012827792204916477,-0.014507622458040714,0.014965757727622986
1772740202215721000,4.789720947265625,0.012827792204916477,-0.004123218823224306,0.020310672000050545
1772740202234493000,4.808492919921875,0.004275931045413017,0.01725643500685692,0.02489202655851841
1772740202253265000,4.827264892578125,-0.0006108472589403391,0.008246437646448612,0.03436015918850899
1772740202272037000,4.846037109375,-0.004275931045413017,-0.004428642801940441,0.03649812191724777
1772740202290809000,4.86480908203125,0.0024433890357613564,-0.007024743594229221,0.029626091942191124
1772740202309581000,4.8835810546875,0.01038440316915512,-0.01252236869186163,0.03161134570837021
1772740202328353300,4.902353271484375,0.014660334214568138,-0.017867282032966614,0.03665083646774292
1772740202347125200,4.921125244140625,0.020157959312200546,-0.01252236869186163,0.03405473381280899
1772740202365897200,4.939897216796875,0.021379653364419937,-0.003359660040587187,0.02901524491608143
1772740202384669200,4.958669189453125,0.031153209507465363,-0.004123218823224306,0.019088976085186005
1772740202403441400,4.97744140625,0.038483377546072006,-0.005497625097632408,0.015423892997205257
1772740202422213400,4.99621337890625,0.03542914241552353,-0.00916270911693573,0.007482878863811493
1772740202440985300,5.0149853515625,0.022601349279284477,-0.00916270911693573,0.011147962883114815
1772740202459757600,5.033757568359375,0.009773556143045425,-0.012216945178806782,0.014202198944985867
1772740202478529500,5.052529541015625,0.006108472589403391,-0.008246437646448612,-0.0036650835536420345
1772740202497301500,5.071301513671875,0.0012216945178806782,-0.0004581354442052543,-0.01572931744158268
1772740202516073700,5.09007373046875,0.0012216945178806782,-0.003970507066696882,-0.0032069480512291193
1772740202534845700,5.108845703125,-0.0006108472589403391,-0.008551862090826035,0.009315420873463154
1772740202553617700,5.12761767578125,-0.005497625097632408,-0.010078979656100273,-0.0012216945178806782
1772740202572390000,5.146389892578125,0.0012216945178806782,-0.018019994720816612,-0.010995250195264816
1772740202591161900,5.165161865234375,0.012216945178806782,0.0029015245381742716,0.004734066314995289
1772740202609933800,5.183933837890625,0.023212196305394173,0.01847812905907631,0.02733541466295719
1772740202628706000,5.2027060546875,0.0018325417768210173,-0.011147962883114815,0.0068720318377017975
1772740202647478000,5.22147802734375,-0.022601349279284477,-0.00916270911693573,-0.028404397889971733
1772740202666250000,5.24025,-0.01954711228609085,0.0018325417768210173,-0.02626643143594265
1772740202685022000,5.25902197265625,0,0.011147962883114815,-0.015271181240677834
1772740202703794200,5.277794189453125,0.01038440316915512,-0.001374406274408102,0.0024433890357613564
1772740202722566100,5.296566162109375,0.0036650835536420345,-0.01588202826678753,0.0068720318377017975
1772740202741338000,5.315338134765625,0.004886778071522713,-0.0032069480512291193,0.005497625097632408
1772740202760110300,5.3341103515625,-0.006108472589403391,0.008704573847353458,-0.007177455350756645
1772740202778882300,5.35288232421875,-0.00916270911693573,0.009773556143045425,-0.018936265259981155
1772740202797654300,5.371654296875,-0.006719320081174374,0.00030542362947016954,-0.007635590620338917
1772740202816426500,5.390426513671875,-0.006719320081174374,0.01435491070151329,-0.004123218823224306
1772740202835198500,5.409198486328125,0,0.014202198944985867,-0.014049487188458443
1772740202853970400,5.427970458984375,0.0024433890357613564,-0.006413896102458239,-0.008093725889921188
1772740202872742700,5.44674267578125,0.0024433890357613564,-0.006719320081174374,0.011147962883114815
1772740202891514600,5.4655146484375,0.0036650835536420345,0.004734066314995289,0.0035123717971146107
1772740202910286600,5.48428662109375,0.004886778071522713,0.015271181240677834,-0.01832541823387146
1772740202929058600,5.50305859375,0.0012216945178806782,0.007941014133393764,-0.021990500390529633
1772740202947830800,5.521830810546875,-0.0018325417768210173,-0.00030542362947016954,0.0004581354442052543
1772740202966602800,5.540602783203125,-0.009773556143045425,0.006108472589403391,0.016340164467692375
1772740202985374700,5.559374755859375,-0.007330167107284069,0.008551862090826035,0.01572931744158268
1772740203004147000,5.57814697265625,-0.014660334214568138,0.010537114925682545,-0.010231691412627697
1772740203022919000,5.5969189453125,-0.01588202826678753,0.006261184345930815,-0.012675080448389053
1772740203041691000,5.61569091796875,-0.012827792204916477,0.006413896102458239,-0.005803049076348543
1772740203060463000,5.634463134765625,-0.0024433890357613564,0.010689826682209969,-0.007788302376866341
1772740203079235000,5.653235107421875,0,0.0038177953101694584,-0.011453386396169662
1772740203098007000,5.672007080078125,0.0006108472589403391,0.006261184345930815,-0.014507622458040714
1772740203116779300,5.690779296875,0.0012216945178806782,0.007941014133393764,0.013896775431931019
1772740203135551200,5.70955126953125,0.004275931045413017,-0.0022906772792339325,0.02214321307837963
1772740203154323200,5.7283232421875,0.005497625097632408,-0.002748812548816204,0.0018325417768210173
1772740203173095400,5.747095458984375,-0.0024433890357613564,0.01435491070151329,-0.03451287001371384
1772740203191867400,5.765867431640625,-0.004275931045413017,0.016340164467692375,-0.03145863488316536
1772740203210639400,5.784639404296875,-0.007330167107284069,-0.008246437646448612,-0.00992626789957285
1772740203229411300,5.803411376953125,-0.0012216945178806782,-0.00992626789957285,0.0036650835536420345
1772740203248183600,5.82218359375,-0.008551862090826035,0.001985253533348441,-0.008246437646448612
1772740203266955500,5.84095556640625,-0.0018325417768210173,0.023364907130599022,-0.013591351918876171
1772740203285727500,5.8597275390625,-0.00916270911693573,-0.01695101149380207,-0.02214321307837963
1772740203304499700,5.878499755859375,0.0030542362947016954,0.007482878863811493,-0.011453386396169662
1772740203323271700,5.897271728515625,0.009773556143045425,0.02733541466295719,0.008551862090826035
1772740203342043600,5.916043701171875,0.007330167107284069,0.0050394898280501366,-0.011453386396169662
1772740203360815900,5.93481591796875,-0.009773556143045425,-0.0036650835536420345,-0.023059483617544174
1772740203379587800,5.953587890625,-0.017714571207761765,-0.0022906772792339325,-0.020616095513105392
1772740203398359800,5.97235986328125,0.0030542362947016954,0.010537114925682545,-0.015271181240677834
1772740203417132000,5.991132080078125,0.005497625097632408,0.001374406274408102,-0.014507622458040714
1772740203435904000,6.009904052734375,0.009773556143045425,0.004428642801940441,-0.016340164467692375
1772740203454676000,6.028676025390625,0.010995250195264816,0.003359660040587187,0.0010689827613532543
1772740203473448200,6.0474482421875,0.007941014133393764,0.00030542362947016954,-0.001374406274408102
1772740203492220200,6.06622021484375,0.004275931045413017,0.005955760832875967,0.004123218823224306
1772740203510992100,6.0849921875,-0.007941014133393764,0.0021379655227065086,-0.00519220158457756
1772740203529764400,6.103764404296875,-0.004275931045413017,0.02870982140302658,-0.013133215717971325
1772740203548536300,6.122536376953125,-0.0024433890357613564,0.014965757727622986,0.00015271181473508477
1772740203567308300,6.141308349609375,0,0.0009162708884105086,-0.00519220158457756
1772740203586080500,6.16008056640625,-0.0024433890357613564,0.0006108472589403391,-0.019394399598240852
1772740203604852500,6.1788525390625,-0.0006108472589403391,0.013591351918876171,-0.012827792204916477
1772740203623624400,6.19762451171875,-0.0012216945178806782,-0.002748812548816204,-0.009468132629990578
1772740203642396700,6.216396728515625,0.008551862090826035,-0.00015271181473508477,0.01038440316915512
1772740203661168600,6.235168701171875,0.006108472589403391,-0.007482878863811493,0.0068720318377017975
1772740203679940600,6.253940673828125,0.011606098152697086,0.020463382825255394,-0.004275931045413017
1772740203698712600,6.272712646484375,0.005497625097632408,0.002748812548816204,0.0004581354442052543
1772740203717484800,6.29148486328125,0.005497625097632408,-0.013438640162348747,0.012369656935334206
1772740203736256800,6.3102568359375,-0.0036650835536420345,-0.01252236869186163,-0.0030542362947016954
1772740203755028700,6.32902880859375,-0.008551862090826035,0.00259610079228878,-0.010231691412627697
1772740203773801000,6.347801025390625,-0.006108472589403391,-0.0036650835536420345,-0.023059483617544174
1772740203792573000,6.366572998046875,0.0006108472589403391,0.0016798300202935934,0.0004581354442052543
1772740203811345200,6.38534521484375,-0.006108472589403391,0.0022906772792339325,0.0010689827613532543
1772740203830117000,6.4041171875,-0.006719320081174374,0.007177455350756645,0.007788302376866341
1772740203848889000,6.42288916015625,-0.0030542362947016954,0.004581354558467865,-0.0015271181473508477
1772740203867661000,6.4416611328125,0.01038440316915512,0.012675080448389053,0.006413896102458239
1772740203886433300,6.460433349609375,0.0018325417768210173,0.010231691412627697,0.004581354558467865
1772740203905205200,6.479205322265625,-0.0024433890357613564,0.010078979656100273,-0.004123218823224306
1772740203923977200,6.497977294921875,-0.007330167107284069,0.005955760832875967,0.002748812548816204
1772740203942749400,6.51674951171875,-0.004275931045413017,-0.0032069480512291193,-0.00015271181473508477
1772740203961521400,6.535521484375,0.0030542362947016954,0.010689826682209969,-0.0035123717971146107
1772740203980293400,6.55429345703125,-0.0006108472589403391,0.007330167107284069,-0.022601349279284477
1772740203999065600,6.573065673828125,-0.0006108472589403391,-0.0010689827613532543,-0.01435491070151329
1772740204017837600,6.591837646484375,0.0012216945178806782,0,0.01588202826678753
1772740204036609500,6.610609619140625,0.009773556143045425,0.0068720318377017975,0.024433890357613564
1772740204055381800,6.6293818359375,-0.0006108472589403391,-0.0006108472589403391,-0.023059483617544174
1772740204074153700,6.64815380859375,-0.007330167107284069,0.00519220158457756,-0.03802524134516716
1772740204092925700,6.66692578125,-0.007941014133393764,0.0038177953101694584,-0.013133215717971325
1772740204111698000,6.685697998046875,0.0024433890357613564,0.0006108472589403391,0.019088976085186005
1772740204130470000,6.704469970703125,0.004275931045413017,-0.009009997360408306,0.019241688773036003
1772740204149241900,6.723241943359375,0.011606098152697086,0.004581354558467865,-0.003970507066696882
1772740204168014000,6.74201416015625,0.007330167107284069,0.010078979656100273,0.0021379655227065086
1772740204186786000,6.7607861328125,0.004275931045413017,0.0038177953101694584,0.023364907130599022
1772740204205558000,6.77955810546875,0.0012216945178806782,-0.007330167107284069,0.013591351918876171
1772740204224330200,6.798330322265625,0.006108472589403391,-0.005955760832875967,-0.013744063675403595
1772740204243102200,6.817102294921875,0.008551862090826035,0.003359660040587187,0.0016798300202935934
1772740204261874200,6.835874267578125,0.004275931045413017,-0.012064233422279358,0.02489202655851841
1772740204280646400,6.854646484375,-0.0018325417768210173,-0.008551862090826035,0.011147962883114815
1772740204299418400,6.87341845703125,-0.0036650835536420345,0.0018325417768210173,-0.021226942539215088
1772740204318190300,6.8921904296875,0.0006108472589403391,-0.005955760832875967,-0.016187451779842377
1772740204336962600,6.910962646484375,-0.0024433890357613564,-0.012216945178806782,0.008093725889921188
1772740204355734500,6.929734619140625,-0.004275931045413017,-0.012827792204916477,0.010537114925682545
1772740204374506500,6.948506591796875,0.0036650835536420345,0.007177455350756645,0.009620844386518002
1772740204393278700,6.96727880859375,0.006108472589403391,0.007330167107284069,0.014507622458040714
1772740204412050700,6.98605078125,-0.0006108472589403391,-0.007941014133393764,0.014202198944985867
1772740204430822700,7.00482275390625,-0.006719320081174374,-0.00992626789957285,0.0024433890357613564
1772740204449595000,7.023594970703125,-0.006108472589403391,-0.007177455350756645,-0.013133215717971325
1772740204468366800,7.042366943359375,-0.0036650835536420345,-0.018630841746926308,-0.012827792204916477
1772740204487138800,7.061138916015625,0.0024433890357613564,-0.012216945178806782,0.009315420873463154
1772740204505911000,7.0799111328125,0.005497625097632408,0.0006108472589403391,0.01588202826678753
1772740204524683000,7.09868310546875,0.012216945178806782,0.0018325417768210173,0.010995250195264816
1772740204543455000,7.117455078125,0.014049487188458443,0.0016798300202935934,0.007177455350756645
1772740204562227200,7.136227294921875,0.005497625097632408,0.002748812548816204,0.00030542362947016954
1772740204580999200,7.154999267578125,0.008551862090826035,0.005803049076348543,0.00030542362947016954
1772740204599771100,7.173771240234375,0.011606098152697086,0.015576604753732681,0.0032069480512291193
1772740204618543400,7.19254345703125,0.007330167107284069,0.007788302376866341,0.0021379655227065086
1772740204637315300,7.2113154296875,0.0006108472589403391,0.0029015245381742716,0.009009997360408306
1772740204656087300,7.23008740234375,-0.0018325417768210173,0.007788302376866341,0.010842538438737392
1772740204674859500,7.248859619140625,-0.004886778071522713,0.011300674639642239,0.00015271181473508477
1772740204693631500,7.267631591796875,-0.0030542362947016954,0.006261184345930815,-0.010231691412627697
1772740204712403500,7.286403564453125,0.005497625097632408,0.02764083817601204,-0.005650337319821119
1772740204731175700,7.30517578125,0.006108472589403391,0.03649812191724777,0.015271181240677834
1772740204749947600,7.32394775390625,0.006108472589403391,0.027029991149902344,-0.0024433890357613564
1772740204768719600,7.3427197265625,-0.0024433890357613564,-0.012675080448389053,-0.017867282032966614
1772740204787491800,7.361491943359375,-0.009773556143045425,-0.01847812905907631,-0.0022906772792339325
1772740204806263800,7.380263916015625,0.0018325417768210173,0.004275931045413017,0.01588202826678753
1772740204825035800,7.399035888671875,0.007941014133393764,0.0035123717971146107,0.010231691412627697
1772740204843808000,7.41780810546875,0.012216945178806782,-0.005650337319821119,0
1772740204862580000,7.436580078125,0.010995250195264816,-0.013438640162348747,0.010689826682209969
1772740204881352200,7.455352294921875,0.0024433890357613564,-0.014507622458040714,0.014965757727622986
1772740204900124200,7.474124267578125,-0.0036650835536420345,-0.001374406274408102,0.0035123717971146107
1772740204918896000,7.492896240234375,-0.0018325417768210173,0.007635590620338917,-0.00030542362947016954
1772740204937668000,7.511668212890625,-0.004886778071522713,0.01511846948415041,0.007635590620338917
1772740204956440300,7.5304404296875,-0.0030542362947016954,-0.010078979656100273,0.033443886786699295
1772740204975212300,7.54921240234375,0.007941014133393764,0.0030542362947016954,0.018936265259981155
1772740204993984300,7.567984375,0.00916270911693573,-0.00030542362947016954,-0.001374406274408102
1772740205012756500,7.586756591796875,0.0036650835536420345,-0.007482878863811493,0.0030542362947016954
1772740205031528400,7.605528564453125,0.0006108472589403391,-0.0036650835536420345,0.007941014133393764
1772740205050300700,7.62430078125,0.0036650835536420345,-0.0032069480512291193,0.0035123717971146107
1772740205069072600,7.64307275390625,0.016492875292897224,-0.011606098152697086,0.009315420873463154
1772740205087844600,7.6618447265625,0.013438640162348747,-0.005955760832875967,0.02351761981844902
1772740205106616600,7.680616455078125,0.005497625097632408,-0.01252236869186163,0.027946261689066887
1772740205125388800,7.699388916015625,0.0006108472589403391,-0.011453386396169662,0.018630841746926308
1772740205144160800,7.718160888671875,0.004886778071522713,-0.007177455350756645,0.02351761981844902
1772740205162933000,7.73693310546875,0.005497625097632408,-0.012216945178806782,0.01435491070151329
1772740205181705000,7.755705078125,0.0036650835536420345,-0.012369656935334206,0.0038177953101694584
1772740205200477000,7.774476806640625,0.01588202826678753,-0.0050394898280501366,0.0010689827613532543
1772740205219249200,7.793249267578125,0.012827792204916477,-0.005344913341104984,0.02473931387066841
1772740205238021000,7.812021240234375,0.012216945178806782,-0.003970507066696882,0.032069481909275055
1772740205256793000,7.83079296875,0.014660334214568138,0.017714571207761765,0.020005248486995697
1772740205275565300,7.8495654296875,0.023212196305394173,0.02351761981844902,-0.0006108472589403391
1772740205294337300,7.868337158203125,0.011606098152697086,-0.011606098152697086,0.01435491070151329
1772740205313109200,7.887109130859375,0,-0.024586603045463562,0.030542362481355667
1772740205331881500,7.905881591796875,-0.0024433890357613564,-0.012064233422279358,0.02489202655851841
1772740205350653400,7.9246533203125,0.0018325417768210173,0.0021379655227065086,-0.004581354558467865
1772740205369425400,7.94342529296875,0.007941014133393764,0.004886778071522713,-0.019394399598240852
1772740205388197600,7.96219775390625,0.0018325417768210173,-0.01572931744158268,-0.014049487188458443
1772740205406969600,7.980969482421875,-0.0006108472589403391,-0.02473931387066841,-0.007788302376866341
1772740205425741600,7.999741455078125,0.008551862090826035,-0.012827792204916477,0.00992626789957285
1772740205444513800,8.018513671875,0.022601349279284477,0.016492875292897224,0.020005248486995697
1772740205463285800,8.03728564453125,0.020157959312200546,0.0004581354442052543,0.005344913341104984
1772740205482057700,8.0560576171875,-0.0018325417768210173,-0.02473931387066841,-0.012675080448389053
1772740205500830000,8.074829833984374,-0.00916270911693573,-0.013133215717971325,-0.01038440316915512
1772740205519602000,8.093601806640624,-0.005497625097632408,-0.004428642801940441,0.0036650835536420345
1772740205538374000,8.112373779296876,0.007941014133393764,-0.0006108472589403391,0.014660334214568138
1772740205557146000,8.13114599609375,0.01954711228609085,-0.005497625097632408,0.013591351918876171
1772740205575918000,8.14991796875,0.01832541823387146,-0.0036650835536420345,0.00916270911693573
1772740205594690300,8.168690185546875,0.009773556143045425,-0.00259610079228878,0.007330167107284069
1772740205613462300,8.187462158203125,0.0030542362947016954,0.00015271181473508477,0.01832541823387146
1772740205632234200,8.206234130859375,-0.0012216945178806782,-0.00916270911693573,0.009315420873463154
1772740205651006500,8.22500634765625,-0.0018325417768210173,0.010689826682209969,-0.004123218823224306
1772740205669778400,8.2437783203125,0.0018325417768210173,0.004734066314995289,0.0065666078589856625
1772740205688550400,8.26255029296875,0.0006108472589403391,-0.013438640162348747,0.006261184345930815
1772740205707322400,8.281322265625,-0.006108472589403391,-0.005497625097632408,0.014813045971095562
1772740205726094600,8.300094482421875,-0.00916270911693573,-0.0065666078589856625,0.01847812905907631
1772740205744866600,8.318866455078124,0,-0.0050394898280501366,0.0036650835536420345
1772740205763638800,8.337638671875,0.0030542362947016954,-0.003970507066696882,-0.0032069480512291193
1772740205782410800,8.35641064453125,0.0030542362947016954,0.002748812548816204,0.00030542362947016954
1772740205801182700,8.3751826171875,0,-0.005955760832875967,0.017867282032966614
1772740205819955000,8.393954833984376,-0.004886778071522713,-0.007482878863811493,0.008704573847353458
1772740205838727000,8.412726806640626,-0.0030542362947016954,-0.0018325417768210173,-0.02244863659143448
1772740205857499000,8.431498779296875,0.0012216945178806782,-0.0018325417768210173,-0.024281177669763565
1772740205876270800,8.450270751953125,-0.0036650835536420345,-0.00519220158457756,0.0006108472589403391
1772740205895043000,8.46904296875,-0.0030542362947016954,-0.009009997360408306,0.020463382825255394
1772740205913821000,8.487821044921875,-0.0018325417768210173,0.0004581354442052543,0.00916270911693573
1772740205932593200,8.50659326171875,0.004886778071522713,0.010842538438737392,0.005803049076348543
1772740205951365000,8.525365234375,0.004275931045413017,0.008551862090826035,0.011453386396169662
1772740205970137300,8.544137451171874,0.008551862090826035,0.009620844386518002,0.008246437646448612
1772740205988909300,8.562909423828126,0.006108472589403391,0.003359660040587187,-0.002748812548816204
1772740206007681300,8.581681396484376,0.0018325417768210173,0.0021379655227065086,-0.002748812548816204
1772740206026453500,8.60045361328125,0.0006108472589403391,-0.0036650835536420345,0.012827792204916477
1772740206045225500,8.6192255859375,0.0012216945178806782,0.0029015245381742716,0.009773556143045425
1772740206063997400,8.63799755859375,0.004275931045413017,0.00992626789957285,-0.012064233422279358
1772740206082769700,8.656769775390625,0.0018325417768210173,0.00259610079228878,-0.018783552572131157
1772740206101541600,8.675541748046875,0,-0.005344913341104984,-0.018019994720816612
1772740206120313600,8.694313720703125,0.0018325417768210173,-0.007024743594229221,-0.008704573847353458
1772740206139085600,8.71308544921875,0.011606098152697086,0.016340164467692375,0.010078979656100273
1772740206157857800,8.73185791015625,0.022601349279284477,0.02626643143594265,0.02107422985136509
1772740206176629800,8.750629638671874,0.007941014133393764,-0.007177455350756645,-0.014965757727622986
1772740206195401700,8.769401611328124,-0.00916270911693573,-0.015423892997205257,-0.04016320779919624
1772740206214174000,8.788174072265624,-0.005497625097632408,-0.0036650835536420345,-0.02244863659143448
1772740206232946000,8.80694580078125,0.005497625097632408,-0.003970507066696882,-0.001374406274408102
1772740206251718000,8.8257177734375,0.010995250195264816,0.007024743594229221,-0.0015271181473508477
1772740206270490000,8.844489990234376,0.034818295389413834,0.004581354558467865,-0.008399149402976036
1772740206289262000,8.863261962890626,0.018936265259981155,-0.00030542362947016954,-0.001985253533348441
1772740206308034000,8.882033935546875,0.0036650835536420345,0.01038440316915512,0.013896775431931019
1772740206326806300,8.90080615234375,-0.005497625097632408,0.006108472589403391,0.012064233422279358
1772740206345578200,8.919578125,-0.004275931045413017,0.011911521665751934,0.002748812548816204
1772740206364350200,8.93835009765625,0.006719320081174374,0.027793550863862038,0.0018325417768210173
1772740206383122200,8.9571220703125,0.008551862090826035,0.010842538438737392,0.010231691412627697
1772740206401894400,8.975894287109375,0.0018325417768210173,-0.004886778071522713,0.011606098152697086
1772740206420666400,8.994666259765625,-0.004886778071522713,0.0004581354442052543,0.004123218823224306
1772740206439438300,9.013438232421874,-0.006108472589403391,0.019241688773036003,0.00259610079228878
1772740206458210600,9.03221044921875,-0.0024433890357613564,0.012675080448389053,0.005803049076348543
1772740206476982500,9.050982421875,-0.0018325417768210173,0.0022906772792339325,0.0016798300202935934
1772740206495754500,9.06975439453125,-0.004886778071522713,-0.0004581354442052543,-0.01435491070151329
1772740206514526700,9.088526611328126,-0.0024433890357613564,-0.0024433890357613564,-0.029167955741286278
1772740206533298700,9.107298583984376,-0.0030542362947016954,-0.0006108472589403391,-0.02244863659143448
1772740206552070700,9.126070556640625,-0.005497625097632408,0.006261184345930815,-0.013896775431931019
1772740206570843000,9.1448427734375,-0.0006108472589403391,0.005650337319821119,-0.009009997360408306
1772740206589614800,9.16361474609375,0.0018325417768210173,-0.0010689827613532543,-0.01252236869186163
1772740206608386800,9.18238671875,0.006108472589403391,0.013744063675403595,-0.004123218823224306
1772740206627159000,9.201158935546875,0.009773556143045425,0.030847785994410515,0.005497625097632408
1772740206645931000,9.219930908203125,0.008551862090826035,0.03161134570837021,0.014049487188458443
1772740206664703000,9.238702880859375,0.004275931045413017,0.007330167107284069,0.011453386396169662
1772740206683475000,9.257474853515625,0.0030542362947016954,0.004734066314995289,0.010231691412627697
1772740206702247200,9.2762470703125,0.006108472589403391,0.00259610079228878,0.025197450071573257
1772740206721019100,9.29501904296875,0,0.007941014133393764,0.01954711228609085
1772740206739791000,9.313791015625,-0.0030542362947016954,0.009468132629990578,0.00030542362947016954
1772740206758563300,9.332563232421874,-0.004275931045413017,0.004581354558467865,-0.003970507066696882
1772740206777335300,9.351335205078126,-0.008551862090826035,-0.004428642801940441,0.0024433890357613564
1772740206796107300,9.370107177734376,-0.004275931045413017,-0.01175880990922451,0.0050394898280501366
1772740206814879500,9.38887939453125,0.007941014133393764,-0.007482878863811493,0.005497625097632408
1772740206833651500,9.4076513671875,0.021990500390529633,0.01817270554602146,0.011300674639642239
1772740206852423400,9.42642333984375,0.021990500390529633,0.008551862090826035,0.01832541823387146
1772740206871195600,9.445195556640625,0.0006108472589403391,-0.020310672000050545,-0.0016798300202935934
1772740206889967600,9.463967529296875,-0.00916270911693573,0,-0.018783552572131157
1772740206908739600,9.482739501953125,0.0036650835536420345,0.014660334214568138,-0.01710372418165207
1772740206927511600,9.501511474609375,0.009773556143045425,0.008246437646448612,-0.0015271181473508477
1772740206946283800,9.52028369140625,0.006108472589403391,0.0024433890357613564,0.01710372418165207
1772740206965055700,9.5390556640625,-0.0006108472589403391,-0.0018325417768210173,0.013591351918876171
1772740206983827700,9.55782763671875,0.0012216945178806782,0.015576604753732681,-0.0022906772792339325
1772740207002599700,9.576599609375,-0.012216945178806782,0.005344913341104984,0.00030542362947016954
1772740207021372000,9.595371826171874,-0.01954711228609085,0.014507622458040714,0.001985253533348441
1772740207040144000,9.614143798828126,-0.012827792204916477,0.02489202655851841,0.004886778071522713
1772740207058915800,9.632915771484376,-0.0006108472589403391,0.027946261689066887,0.014813045971095562
1772740207077688000,9.65168798828125,0.0024433890357613564,0.020157959312200546,0.02107422985136509
1772740207096460000,9.6704599609375,-0.007330167107284069,0.025655584409832954,0.018630841746926308
1772740207115232000,9.68923193359375,-0.004275931045413017,0.021837789565324783,0.010537114925682545
1772740207134004200,9.708004150390625,0,0.021837789565324783,0.013133215717971325
1772740207152776200,9.726776123046875,-0.005497625097632408,0.04993676394224167,0.018019994720816612
1772740207171548200,9.745548095703125,-0.006719320081174374,0.08002099394798279,0.03802524134516716
1772740207190320400,9.7643203125,-0.005497625097632408,0.0659715011715889,0.07238540053367615
1772740207209092400,9.78309228515625,-0.010995250195264816,0.03512371703982353,0.12125317752361298
1772740207227864300,9.8018642578125,-0.08658760040998459,-0.10873081535100937,0.1782146841287613
1772740207246636300,9.82063623046875,-0.0036650835536420345,-0.11483928561210632,0.06383354216814041
1772740207265408500,9.839408447265624,0.0006108472589403391,0.003970507066696882,-0.04550812020897865
1772740207284180500,9.858180419921876,0.02244863659143448,0.05360184609889984,-0.13423368334770203
1772740207302952400,9.876952392578126,0.028557108715176582,0.08689302206039429,-0.10644013434648514
