time,seconds_elapsed,z,y,x
1772557011254955000,0.299955078125,-0.035325050354003906,0.00009110569953918457,0.0012760460376739502
1772557011273728300,0.318728271484375,-0.03053569793701172,-0.0022500604391098022,0.0003113299608230591
1772557011292501200,0.337501220703125,-0.0353240966796875,0.004769250750541687,-0.002402395009994507
1772557011311274500,0.3562744140625,-0.03532123565673828,-0.0047471001744270325,0.0028239190578460693
1772557011330047500,0.375047607421875,-0.02693939208984375,-0.0021518394351005554,0.0027580857276916504
1772557011348820700,0.39382080078125,-0.02693653106689453,-0.007974319159984589,0.007836878299713135
1772557011367593700,0.41259375,-0.03052806854248047,-0.001887582242488861,0.0029631108045578003
1772557011386367000,0.431366943359375,-0.03411865234375,-0.0029282942414283752,0.0017379671335220337
1772557011405140000,0.450139892578125,-0.03651237487792969,0.006185568869113922,-0.0022289007902145386
1772557011423913200,0.468913330078125,-0.031723976135253906,-0.006864972412586212,0.0006836652755737305
1772557011442686500,0.4876865234375,-0.03890705108642578,-0.011868476867675781,0.0019211024045944214
1772557011461459500,0.50645947265625,-0.029328346252441406,0.0015000402927398682,0.0020048022270202637
1772557011480232700,0.525232666015625,-0.02693462371826172,-0.0023107603192329407,-0.00040200352668762207
1772557011499005700,0.544005615234375,-0.040101051330566406,-0.007999986410140991,0.010404527187347412
1772557011517779000,0.562779052734375,-0.04010200500488281,-0.0021751821041107178,0.0030993372201919556
1772557011536552000,0.581552001953125,-0.030527114868164062,-0.005739577114582062,0.0056273192167282104
1772557011555325200,0.6003251953125,-0.03052806854248047,-0.0034708157181739807,0.00562034547328949
1772557011574098400,0.619098388671875,-0.035315513610839844,-0.008420072495937347,0.004458025097846985
1772557011592871400,0.637871337890625,-0.03292083740234375,-0.0023767128586769104,0.0009512901306152344
1772557011611644700,0.656644775390625,-0.035315513610839844,-0.007178574800491333,0.0033257901668548584
1772557011630417700,0.675417724609375,-0.03172588348388672,0.002440445125102997,-0.0006039738655090332
1772557011649191000,0.69419091796875,-0.030529022216796875,-0.0024462267756462097,-0.0006247907876968384
1772557011667964200,0.712964111328125,-0.031723976135253906,-0.0014673396944999695,-0.005107715725898743
1772557011686737200,0.731737060546875,-0.02214813232421875,0.00012821704149246216,0.0007305294275283813
1772557011705510400,0.750510498046875,-0.036513328552246094,-0.005961082875728607,0.0006456375122070312
1772557011724283400,0.769283447265625,-0.026935577392578125,0.0005428269505500793,0.0016647875308990479
1772557011743056600,0.788056640625,-0.029328346252441406,-0.0016947239637374878,0.008959934115409851
1772557011761830000,0.806829833984375,-0.037711143493652344,-0.0017061084508895874,0.008767947554588318
1772557011780603000,0.825602783203125,-0.03651237487792969,-0.0007629171013832092,0.001612439751625061
1772557011799376100,0.844376220703125,-0.029329299926757812,-0.0032250583171844482,0.0016172528266906738
1772557011818149000,0.863149169921875,-0.026935577392578125,-0.0008068382740020752,-0.0018300563097000122
1772557011836922400,0.88192236328125,-0.03531837463378906,0.0012189894914627075,-0.003152713179588318
1772557011855695600,0.900695556640625,-0.02933216094970703,0.003962941467761993,-0.0007236748933792114
1772557011874468600,0.919468505859375,-0.04249763488769531,-0.004457145929336548,-0.0008453577756881714
1772557011893241900,0.938241943359375,-0.02813434600830078,-0.006657600402832031,-0.000778496265411377
1772557011912014800,0.957014892578125,-0.037708282470703125,0.003126189112663269,0.008580386638641357
1772557011930788000,0.9757880859375,-0.03411865234375,-0.007602125406265259,0.002660498023033142
1772557011949561300,0.994561279296875,-0.031723976135253906,-0.006415762007236481,0.0052381157875061035
1772557011968334300,1.013334228515625,-0.030527114868164062,-0.006519012153148651,-0.0008316338062286377
1772557011987107600,1.032107666015625,-0.03531646728515625,0.0007432624697685242,0.006242230534553528
1772557012005880600,1.050880615234375,-0.036513328552246094,0.004376918077468872,0.0036695003509521484
1772557012024653800,1.06965380859375,-0.04010009765625,0.006576791405677795,-0.0011271238327026367
1772557012043426800,1.0884267578125,-0.03291797637939453,0.002139471471309662,0.005040347576141357
1772557012062200000,1.107199951171875,-0.03052234649658203,-0.006192624568939209,0.004168331623077393
1772557012080973300,1.125973388671875,-0.04009819030761719,0.0009776726365089417,0.007585927844047546
1772557012099746300,1.144746337890625,-0.030973434448242188,-0.0065148696303367615,-0.0007200241088867188
1772557012118519600,1.16351953125,-0.026335716247558594,0.006736151874065399,0.004047706723213196
1772557012137292500,1.18229248046875,-0.031124114990234375,-0.0029064491391181946,0.007684364914894104
1772557012156065800,1.201065673828125,-0.037108421325683594,-0.006805360317230225,-0.0006653070449829102
1772557012174839000,1.219839111328125,-0.028730392456054688,-0.002988874912261963,0.004153594374656677
1772557012193612000,1.238612060546875,-0.031121253967285156,0.0016310513019561768,0.0018958449363708496
1772557012212385300,1.25738525390625,-0.034712791442871094,0.0003162175416946411,-0.0017338544130325317
1772557012231158500,1.276158447265625,-0.032321929931640625,-0.005597025156021118,0.002971172332763672
1772557012249931500,1.294931640625,-0.038308143615722656,-0.004720911383628845,-0.0018912553787231445
1772557012268704800,1.313704833984375,-0.031124114990234375,0.007334068417549133,-0.005518794059753418
1772557012287477800,1.332477783203125,-0.023794174194335938,0.003549143671989441,-0.005479097366333008
1772557012306251000,1.3512509765625,-0.031723976135253906,-0.00685526430606842,0.0005949884653091431
1772557012325024300,1.370024169921875,-0.031723976135253906,0.0005646347999572754,0.006587430834770203
1772557012343797200,1.38879736328125,-0.03411865234375,-0.004245266318321228,0.012534424662590027
1772557012362570500,1.407570556640625,-0.029331207275390625,-0.0020264089107513428,0.006522923707962036
1772557012381343500,1.426343505859375,-0.031723976135253906,0.001696363091468811,0.005310416221618652
1772557012400116700,1.44511669921875,-0.040101051330566406,-0.005690291523933411,0.003083959221839905
1772557012418890000,1.463889892578125,-0.03531360626220703,0.0027190521359443665,0.0006509572267532349
1772557012437663000,1.4826630859375,-0.026935577392578125,-0.0032264143228530884,-0.00318320095539093
1772557012456436200,1.501436279296875,-0.028128623962402344,0.005338244140148163,0.00398467481136322
1772557012475209200,1.520209228515625,-0.04129791259765625,-0.0031564459204673767,0.0006035417318344116
1772557012493982500,1.538982421875,-0.0317230224609375,-0.008752062916755676,0.012425065040588379
1772557012512755700,1.557755615234375,-0.03561210632324219,0.004452988505363464,0.011145517230033875
1772557012531528700,1.57652880859375,-0.03546333312988281,-0.001706726849079132,0.012454941868782043
1772557012550302000,1.595302001953125,-0.040251731872558594,-0.004273183643817902,0.0004597604274749756
1772557012569075200,1.6140751953125,-0.033370018005371094,-0.0005387440323829651,0.0003161579370498657
1772557012587848200,1.63284814453125,-0.03576469421386719,-0.0007621422410011292,0.00034068524837493896
1772557012606621400,1.651621337890625,-0.038008689880371094,-0.0018272176384925842,-0.0008305907249450684
1772557012625394400,1.67039453125,-0.027083396911621094,-0.006467469036579132,-0.0008693486452102661
1772557012644167700,1.689167724609375,-0.026337623596191406,0.004223145544528961,-0.000894010066986084
1772557012662941000,1.70794091796875,-0.034267425537109375,-0.008808515965938568,0.0028775036334991455
1772557012681714000,1.7267138671875,-0.029478073120117188,-0.0002488866448402405,0.01112617552280426
1772557012700487200,1.745487060546875,-0.03187370300292969,-0.00021819770336151123,0.005050867795944214
1772557012719260200,1.76426025390625,-0.03172588348388672,0.0008993223309516907,0.002565711736679077
1772557012738033400,1.783033447265625,-0.04130077362060547,-0.00020299851894378662,0.004768878221511841
1772557012756806700,1.801806640625,-0.030527114868164062,-0.0025565549731254578,0.007325321435928345
1772557012775579600,1.82057958984375,-0.028133392333984375,-0.000013135373592376709,0.0036945641040802
1772557012794353000,1.839352783203125,-0.036510467529296875,-0.0038136690855026245,-0.0023277699947357178
1772557012813126100,1.858126220703125,-0.026935577392578125,0.00010941177606582642,0.0048117488622665405
1772557012831899100,1.876899169921875,-0.02573871612548828,-0.0010542720556259155,0.0033669322729110718
1772557012850672400,1.89567236328125,-0.03172492980957031,0.0033583864569664,0.0021932125091552734
1772557012869445600,1.914445556640625,-0.034119606018066406,-0.000157184898853302,-0.003757879137992859
1772557012888218600,1.933218505859375,-0.031874656677246094,0.003312036395072937,-0.0012436509132385254
1772557012906991900,1.951991943359375,-0.029334068298339844,-0.004994876682758331,0.008189842104911804
1772557012925764900,1.970764892578125,-0.034272193908691406,0.002366088330745697,0.010546132922172546
1772557012944538000,1.9895380859375,-0.024695396423339844,-0.0035777613520622253,0.004525706171989441
1772557012963311400,2.008311279296875,-0.035470008850097656,-0.002609752118587494,0.0033019930124282837
1772557012982084400,2.02708447265625,-0.03816413879394531,-0.001791156828403473,-0.002650246024131775
1772557013000857600,2.045857666015625,-0.03217887878417969,0.0018300563097000122,-0.001539871096611023
1772557013019630800,2.064630859375,-0.030983924865722656,-0.0003835633397102356,-0.002871274948120117
1772557013038403800,2.08340380859375,-0.032928466796875,-0.0027935728430747986,0.0019965320825576782
1772557013057177000,2.102177001953125,-0.029486656188964844,-0.004181340336799622,0.0033424794673919678
1772557013075950300,2.120950439453125,-0.030832290649414062,0.0006803721189498901,0.0035346001386642456
1772557013094723300,2.139723388671875,-0.03187847137451172,-0.0005782991647720337,0.004603490233421326
1772557013113496600,2.15849658203125,-0.041304588317871094,0.004276782274246216,-0.00040377676486968994
1772557013132269800,2.177269775390625,-0.029333114624023438,-0.005205303430557251,0.0011000335216522217
1772557013151042800,2.196042724609375,-0.03651618957519531,-0.0026844441890716553,0.0022639483213424683
1772557013169816000,2.214816162109375,-0.03771209716796875,0.0021335408091545105,0.006915152072906494
1772557013188589300,2.23358935546875,-0.03531932830810547,-0.00854509323835373,0.0021163970232009888
1772557013207362300,2.2523623046875,-0.03531837463378906,0.009434081614017487,-0.0042027682065963745
1772557013226135600,2.271135498046875,-0.028139114379882812,-0.0005785301327705383,-0.007655829191207886
1772557013244908500,2.289908447265625,-0.03651618957519531,-0.002513505518436432,0.0034249722957611084
1772557013263681800,2.308681884765625,-0.03173065185546875,-0.003900371491909027,0.005639985203742981
1772557013282455000,2.327455078125,-0.029335975646972656,0.0009269043803215027,0.004455924034118652
1772557013301228000,2.34622802734375,-0.03113269805908203,-0.00038811564445495605,0.005654141306877136
1772557013320001300,2.365001220703125,-0.03352832794189453,-0.002748623490333557,0.010290160775184631
1772557013338774500,2.3837744140625,-0.027543067932128906,-0.008788801729679108,-0.0003718733787536621
1772557013357547500,2.402547607421875,-0.031134605407714844,-0.005517289042472839,-0.0028814375400543213
1772557013376320800,2.42132080078125,-0.0323333740234375,0.001729913055896759,-0.0041538625955581665
1772557013395094000,2.440093994140625,-0.029941558837890625,-0.0005952045321464539,0.002889096736907959
1772557013413867000,2.458866943359375,-0.028746604919433594,-0.005870647728443146,-0.003055393695831299
1772557013432640300,2.47764013671875,-0.03592491149902344,0.00286305695772171,0.001742139458656311
1772557013451413500,2.49641357421875,-0.038321495056152344,-0.0018464922904968262,0.004156395792961121
1772557013470186500,2.5151865234375,-0.02874279022216797,-0.006347127258777618,0.009166747331619263
1772557013488959700,2.533959716796875,-0.03577423095703125,-0.006453476846218109,0.0043630450963974
1772557013507733000,2.55273291015625,-0.04131031036376953,-0.005372084677219391,-0.0004472285509109497
1772557013526506000,2.571506103515625,-0.02724742889404297,-0.00311259925365448,-0.0005765855312347412
1772557013545279200,2.590279296875,-0.0308380126953125,-0.0031640902161598206,-0.007784008979797363
1772557013564052500,2.609052490234375,-0.04385852813720703,-0.005634143948554993,-0.000737801194190979
1772557013582825500,2.627825439453125,-0.029644012451171875,0.0018785446882247925,-0.000870048999786377
1772557013601598700,2.6465986328125,-0.024855613708496094,-0.0008025690913200378,0.0016483515501022339
1772557013620372000,2.6653720703125,-0.036975860595703125,0.002862289547920227,0.002986431121826172
1772557013639145000,2.68414501953125,-0.03338623046875,0.00038748234510421753,0.005357712507247925
1772557013657918200,2.702918212890625,-0.025903701782226562,-0.0030690953135490417,0.004293903708457947
1772557013676691500,2.72169140625,-0.03308582305908203,0.0016365274786949158,0.007860392332077026
1772557013695464400,2.74046435546875,-0.033087730407714844,-0.0009311586618423462,0.0006460994482040405
1772557013714237700,2.75923779296875,-0.02455615997314453,0.0016541779041290283,0.0018237829208374023
1772557013733011000,2.778010986328125,-0.03652477264404297,-0.002197839319705963,-0.0004939138889312744
1772557013751784000,2.796783935546875,-0.03772544860839844,0.0027118846774101257,-0.0029911845922470093
1772557013770557200,2.81555712890625,-0.03892040252685547,-0.001981094479560852,0.0006746500730514526
1772557013789330400,2.834330322265625,-0.030542373657226562,-0.004545971751213074,-0.0017485469579696655
1772557013808103400,2.853103515625,-0.03532981872558594,-0.007313936948776245,-0.004106104373931885
1772557013826876700,2.871876708984375,-0.030544281005859375,-0.004902705550193787,-0.004063203930854797
1772557013845650000,2.89064990234375,-0.023360252380371094,-0.0043619051575660706,0.0018746554851531982
1772557013864423000,2.9094228515625,-0.03054332733154297,0.0001939237117767334,0.004290491342544556
1772557013883196200,2.928196044921875,-0.03413677215576172,-0.0021848827600479126,0.005457192659378052
1772557013901969400,2.946969482421875,-0.03593158721923828,-0.006034627556800842,0.001981303095817566
1772557013920742400,2.965742431640625,-0.027551651000976562,-0.006094165146350861,0.005664929747581482
1772557013939515600,2.984515625,-0.034735679626464844,-0.0001259446144104004,0.003048345446586609
1772557013958289000,3.003288818359375,-0.027551651000976562,0.000985562801361084,-0.0018148571252822876
1772557013977062000,3.022061767578125,-0.028748512268066406,0.0009111464023590088,-0.008938208222389221
1772557013995835100,3.040835205078125,-0.038326263427734375,-0.00009705126285552979,0.0005608946084976196
1772557014014608400,3.0596083984375,-0.02874755859375,-0.007026337087154388,0.0053714364767074585
1772557014033381400,3.07838134765625,-0.031144142150878906,-0.00447671115398407,0.004074752330780029
1772557014052154600,3.097154541015625,-0.0443115234375,-0.005628548562526703,0.003900572657585144
1772557014070928000,3.115927978515625,-0.031145095825195312,0.0012366920709609985,-0.011775106191635132
1772557014089700900,3.134700927734375,-0.031145095825195312,-0.005900189280509949,-0.003270193934440613
1772557014108474000,3.15347412109375,-0.031145095825195312,-0.003014884889125824,0.009716615080833435
1772557014127247400,3.172247314453125,-0.025156021118164062,0.0035066604614257812,0.01320946216583252
1772557014146020400,3.191020263671875,-0.03951740264892578,-0.012945413589477539,0.007572263479232788
1772557014164793600,3.209793701171875,-0.03951549530029297,-0.007995322346687317,0.009882554411888123
1772557014183566800,3.22856689453125,-0.02395343780517578,0.00032995641231536865,-0.001217082142829895
1772557014202339800,3.24733984375,-0.029936790466308594,0.0038246363401412964,-0.007221251726150513
1772557014221113000,3.266113037109375,-0.03232574462890625,0.0018191039562225342,-0.003398790955543518
1772557014239886300,3.28488623046875,-0.032319068908691406,-0.0024760067462921143,0.0015294551849365234
1772557014258659300,3.303659423828125,-0.03830146789550781,-0.009052202105522156,0.0015941411256790161
1772557014277432600,3.3224326171875,-0.04428672790527344,-0.0017731264233589172,0.0071959346532821655
1772557014296205800,3.341205810546875,-0.027527809143066406,-0.002143383026123047,-0.003238871693611145
1772557014314978800,3.359978759765625,-0.03231620788574219,0.0029988065361976624,0.0036495476961135864
1772557014333752000,3.378751953125,-0.03351020812988281,-0.0015797317028045654,0.0038234442472457886
1772557014352525300,3.397525390625,-0.02752399444580078,-0.00023234635591506958,-0.004633098840713501
1772557014371298300,3.41629833984375,-0.029915809631347656,-0.0036415457725524902,-0.008092686533927917
1772557014390071600,3.435071533203125,-0.04786968231201172,-0.008267499506473541,0.005040943622589111
1772557014408844800,3.4538447265625,-0.039488792419433594,-0.0022965669631958008,-0.0033919215202331543
1772557014427618000,3.4726181640625,-0.0263214111328125,-0.0006692036986351013,0.007417231798171997
1772557014446391000,3.49139111328125,-0.03230571746826172,-0.006459422409534454,0.024184003472328186
1772557014465164300,3.510164306640625,-0.03948783874511719,-0.010412037372589111,0.01239234209060669
1772557014483937500,3.5289375,-0.03230762481689453,-0.008079372346401215,0.013408243656158447
1772557014502710500,3.54771044921875,-0.03470039367675781,0.0030343756079673767,0.01058940589427948
1772557014521483800,3.56648388671875,-0.02631855010986328,-0.007936947047710419,0.00635915994644165
1772557014540257000,3.585257080078125,-0.039485931396484375,-0.000022776424884796143,-0.009361624717712402
1772557014559030000,3.604030029296875,-0.029908180236816406,0.004805609583854675,-0.012851998209953308
1772557014577803300,3.62280322265625,-0.02991008758544922,-0.00005587935447692871,-0.012898728251457214
1772557014596576500,3.641576416015625,-0.033499717712402344,-0.00007288902997970581,-0.006869137287139893
1772557014615349500,3.660349609375,-0.028713226318359375,-0.003676600754261017,-0.010580062866210938
1772557014634122800,3.679122802734375,-0.02871227264404297,-0.004730388522148132,-0.0008525699377059937
1772557014652896000,3.69789599609375,-0.03469371795654297,-0.007069334387779236,0.0016877204179763794
1772557014671669200,3.716669189453125,-0.03708457946777344,0.001604236662387848,0.009119242429733276
1772557014690442200,3.735442138671875,-0.02990436553955078,-0.005644962191581726,0.00565764307975769
1772557014709215500,3.754215576171875,-0.029906272888183594,-0.004460074007511139,0.010512933135032654
1772557014727988700,3.77298876953125,-0.03349781036376953,-0.005873948335647583,0.008040115237236023
1772557014746761700,3.79176171875,-0.029908180236816406,0.0025775879621505737,0.008962690830230713
1772557014765535000,3.810534912109375,-0.03230094909667969,0.002408444881439209,0.0018693506717681885
1772557014784308200,3.82930810546875,-0.027512550354003906,-0.005811750888824463,0.006765812635421753
1772557014803081200,3.848081298828125,-0.034697532653808594,-0.003635816276073456,0.00035497546195983887
1772557014821854500,3.8668544921875,-0.034697532653808594,0.0009844079613685608,-0.011557444930076599
1772557014840627700,3.885627685546875,-0.0323028564453125,0.005691029131412506,-0.005521446466445923
1772557014859400700,3.904400634765625,-0.02870941162109375,-0.004980497062206268,-0.007528394460678101
1772557014878174000,3.923174072265625,-0.026312828063964844,0.0014536455273628235,0.0007781833410263062
1772557014896947200,3.941947265625,-0.0334930419921875,-0.004517987370491028,-0.0003391951322555542
1772557014915720400,3.960720458984375,-0.03229522705078125,-0.0004943534731864929,0.007971853017807007
1772557014934493400,3.979493408203125,-0.026309967041015625,-0.0017055273056030273,0.01412975788116455
1772557014953266700,3.9982666015625,-0.028702735900878906,-0.0020312145352363586,0.005960926413536072
1772557014972040000,4.0170400390625,-0.03588581085205078,-0.004343748092651367,0.01316879689693451
1772557014990813000,4.03581298828125,-0.028705596923828125,-0.007305644452571869,0.0036737024784088135
1772557015009586200,4.054586181640625,-0.03828144073486328,-0.003818884491920471,0.0010142773389816284
1772557015028359400,4.073359375,-0.03349018096923828,-0.0036621764302253723,-0.00478595495223999
1772557015047132400,4.09213232421875,-0.03229331970214844,-0.00486881285905838,-0.0034555047750473022
1772557015065905700,4.11090576171875,-0.03349113464355469,-0.004786528646945953,0.0012248754501342773
1772557015084679000,4.129678955078125,-0.028703689575195312,-0.0023129507899284363,0.008239611983299255
1772557015103452000,4.148451904296875,-0.031097412109375,-0.006155572831630707,0.003881484270095825
1772557015122225200,4.16722509765625,-0.035887718200683594,-0.009749293327331543,0.00022687017917633057
1772557015140998400,4.185998291015625,-0.02870464324951172,0.004592426121234894,-0.003821834921836853
1772557015159771600,4.204771728515625,-0.03469085693359375,0.0021782219409942627,0.004537731409072876
1772557015178544600,4.223544677734375,-0.02990245819091797,-0.0021181851625442505,0.009534314274787903
1772557015197318000,4.24231787109375,-0.028705596923828125,-0.0033646970987319946,0.0036659836769104004
1772557015216091100,4.261091064453125,-0.02750873565673828,-0.010343417525291443,0.009815528988838196
1772557015234864000,4.279864013671875,-0.029906272888183594,0.000056624412536621094,0.003146141767501831
1772557015253637400,4.298637451171875,-0.02392292022705078,-0.003752894699573517,-0.005152300000190735
1772557015272410600,4.31741064453125,-0.03229999542236328,0.002118118107318878,-0.012522980570793152
1772557015291183600,4.33618359375,-0.03708934783935547,-0.0012822821736335754,-0.010097339749336243
1772557015309956900,4.354956787109375,-0.03349876403808594,-0.0015227645635604858,-0.013618022203445435
1772557015328730000,4.373730224609375,-0.027512550354003906,-0.0026774704456329346,-0.008631154894828796
1772557015347503000,4.392503173828125,-0.03230094909667969,-0.0072107017040252686,0.0033147037029266357
1772557015366276400,4.4112763671875,-0.03229999542236328,0.0013547465205192566,0.007772386074066162
1772557015385049600,4.430049560546875,-0.034694671630859375,-0.0021006613969802856,0.009234696626663208
1772557015403822800,4.44882275390625,-0.03708839416503906,-0.0057935044169425964,0.012891843914985657
1772557015422595800,4.467595947265625,-0.03708839416503906,-0.00798528641462326,0.01309378445148468
1772557015441369000,4.486369140625,-0.029905319213867188,-0.0033587589859962463,0.005639597773551941
1772557015460142300,4.505142333984375,-0.03469276428222656,-0.004808574914932251,-0.0062925368547439575
1772557015478915300,4.523915283203125,-0.03948211669921875,-0.0013440847396850586,-0.004055783152580261
1772557015497688600,4.5426884765625,-0.03589344024658203,0.0034212693572044373,-0.009048745036125183
1772557015516461800,4.5614619140625,-0.033499717712402344,-0.004818141460418701,-0.001940116286277771
1772557015535234800,4.58023486328125,-0.04188060760498047,0.0024945810437202454,0.0027732551097869873
1772557015554008000,4.599008056640625,-0.029610633850097656,-0.009272202849388123,0.00641988217830658
1772557015572781300,4.61778125,-0.04068279266357422,-0.005633033812046051,0.005045279860496521
1772557015591554300,4.63655419921875,-0.027068138122558594,-0.010329008102416992,0.014679044485092163
1772557015610327600,4.65532763671875,-0.027515411376953125,0.002693764865398407,0.003828004002571106
1772557015629100800,4.674100830078125,-0.03350067138671875,0.0039815753698349,0.0013469606637954712
1772557015647874000,4.6928740234375,-0.02497100830078125,-0.0057175010442733765,-0.002059563994407654
1772557015666647000,4.71164697265625,-0.030956268310546875,-0.010599479079246521,-0.004196643829345703
1772557015685420300,4.730420166015625,-0.03469657897949219,-0.004758521914482117,-0.00554947555065155
1772557015704193500,4.749193603515625,-0.032301902770996094,0.000029653310775756836,-0.005351945757865906
1772557015722966500,4.767966552734375,-0.032301902770996094,-0.0012771263718605042,-0.00046087801456451416
1772557015741739800,4.78673974609375,-0.031106948852539062,-0.0038907602429389954,0.004255190491676331
1772557015760513000,4.805512939453125,-0.03349876403808594,-0.0002422034740447998,0.005345046520233154
1772557015779286000,4.8242861328125,-0.02392292022705078,-0.007207997143268585,0.0033711791038513184
1772557015798059300,4.843059326171875,-0.031103134155273438,-0.00006273388862609863,0.0010008811950683594
1772557015816832500,4.86183251953125,-0.03110218048095703,0.004922010004520416,-0.0006525218486785889
1772557015835605800,4.880605712890625,-0.033496856689453125,0.0011856630444526672,-0.0005181580781936646
1772557015854378800,4.899378662109375,-0.03469276428222656,-0.0023460984230041504,-0.0027250945568084717
1772557015873152000,4.918152099609375,-0.03229808807373047,0.003614954650402069,-0.0016662180423736572
1772557015891925200,4.93692529296875,-0.02990245819091797,-0.007183268666267395,-0.00217321515083313
1772557015910698200,4.9556982421875,-0.020322799682617188,0.002650052309036255,0.004492372274398804
1772557015929471500,4.974471435546875,-0.03468894958496094,-0.004785023629665375,0.0037342458963394165
1772557015948244700,4.99324462890625,-0.032296180725097656,-0.008268468081951141,0.008542314171791077
1772557015967017700,5.012017822265625,-0.033493995666503906,-0.0033805295825004578,0.010672613978385925
1772557015985791000,5.030791015625,-0.037085533142089844,0.00006029754877090454,0.005779534578323364
1772557016004564200,5.049564208984375,-0.037082672119140625,-0.003617390990257263,0.0025295019149780273
1772557016023337500,5.06833740234375,-0.029903411865234375,0.0010558366775512695,-0.002668127417564392
1772557016042110500,5.0871103515625,-0.038285255432128906,-0.0026432424783706665,-0.0025729984045028687
1772557016060883700,5.1058837890625,-0.039481163024902344,-0.00497262179851532,0.0022511184215545654
1772557016079657000,5.124656982421875,-0.03589057922363281,-0.0026302412152290344,0.0010988712310791016
1772557016098430000,5.143429931640625,-0.02870941162109375,0.000844813883304596,0.0019292980432510376
1772557016117203200,5.162203125,-0.038285255432128906,0.0032912343740463257,-0.008704766631126404
1772557016135976400,5.1809765625,-0.03469657897949219,-0.0015134066343307495,-0.0015786141157150269
1772557016154749400,5.19974951171875,-0.031105995178222656,-0.006441034376621246,-0.001300320029258728
1772557016173522700,5.218522705078125,-0.02512073516845703,-0.0038900524377822876,0.0023256540298461914
1772557016192296000,5.2372958984375,-0.034698486328125,-0.0015494674444198608,0.004298105835914612
1772557016211069200,5.256069091796875,-0.034699440002441406,-0.003116399049758911,0.004550516605377197
1772557016229842200,5.27484228515625,-0.027515411376953125,0.0019654855132102966,0.009525418281555176
1772557016248615400,5.293615478515625,-0.028711318969726562,-0.0019208937883377075,-0.001363515853881836
1772557016267388700,5.312388671875,-0.03469657897949219,-0.004476636648178101,-0.0022403299808502197
1772557016286161700,5.33116162109375,-0.021529197692871094,-0.005627728998661041,0.0015447288751602173
1772557016304935000,5.349934814453125,-0.033501625061035156,0.00003771483898162842,0.0013913065195083618
1772557016323708200,5.368708251953125,-0.040683746337890625,0.004705503582954407,-0.0034375637769699097
1772557016342481200,5.387481201171875,-0.02991008758544922,-0.0023230910301208496,0.006480395793914795
1772557016361254400,5.40625439453125,-0.03948497772216797,-0.000126667320728302,0.00408114492893219
1772557016380027600,5.425027587890625,-0.03110504150390625,-0.00007023662328720093,0.004213735461235046
1772557016398801000,5.44380078125,-0.031104087829589844,-0.006214745342731476,0.00198344886302948
1772557016417574000,5.462573974609375,-0.02751445770263672,0.0032427236437797546,0.0030234158039093018
1772557016436347100,5.48134716796875,-0.035895347595214844,-0.008769169449806213,0.0007756650447845459
1772557016455120400,5.500120361328125,-0.038290977478027344,-0.010004617273807526,0.0020599961280822754
1772557016473893400,5.518893310546875,-0.023926734924316406,-0.0003897473216056824,0.008923843502998352
1772557016492666600,5.53766650390625,-0.022731781005859375,-0.005337327718734741,0.007859662175178528
1772557016511440000,5.55643994140625,-0.03590202331542969,-0.0066356658935546875,0.0027513504028320312
1772557016530213000,5.575213134765625,-0.03230857849121094,-0.00903269648551941,0.004518195986747742
1772557016548986000,5.593986083984375,-0.02991485595703125,-0.0009138062596321106,0.0006801486015319824
1772557016567759400,5.61275927734375,-0.023931503295898438,0.00028339773416519165,0.004040732979774475
1772557016586532600,5.63153271484375,-0.03949260711669922,-0.006998598575592041,0.005218937993049622
1772557016605305600,5.6503056640625,-0.02872180938720703,-0.0037198588252067566,-0.0008231550455093384
1772557016624078800,5.669078857421875,-0.03231239318847656,-0.004545338451862335,0.005341067910194397
1772557016642852000,5.68785205078125,-0.037102699279785156,-0.0014209076762199402,-0.001988545060157776
1772557016661625000,5.706625,-0.03231525421142578,-0.005993731319904327,0.0040602535009384155
1772557016680398300,5.7253984375,-0.03231334686279297,-0.002184167504310608,0.0016012042760849
1772557016699171600,5.744171630859375,-0.03351306915283203,-0.0020854100584983826,0.0062055885791778564
1772557016717944800,5.76294482421875,-0.031118392944335938,-0.0024363920092582703,0.003956347703933716
1772557016736717800,5.7817177734375,-0.028723716735839844,-0.00015591830015182495,0.0028089284896850586
1772557016755491000,5.800490966796875,-0.02752685546875,-0.003649197518825531,0.004046902060508728
1772557016774264300,5.819264404296875,-0.03231525421142578,-0.008629515767097473,-0.00284576416015625
1772557016793037300,5.838037353515625,-0.027528762817382812,-0.0036280453205108643,0.005102112889289856
1772557016811810600,5.856810546875,-0.028726577758789062,-0.002575099468231201,0.0014417767524719238
1772557016830583800,5.875583740234375,-0.034712791442871094,-0.0037833601236343384,0.005069628357887268
1772557016849356800,5.894356689453125,-0.029924392700195312,-0.006576970219612122,0.0005328655242919922
1772557016868130000,5.913130126953125,-0.022742271423339844,-0.0074610114097595215,0.004192754626274109
1772557016886903300,5.9319033203125,-0.03710651397705078,-0.002854064106941223,0.000278279185295105
1772557016905676500,5.950676513671875,-0.029923439025878906,0.008502833545207977,0.005152031779289246
1772557016924449500,5.969449462890625,-0.03186798095703125,-0.002465486526489258,0.005238667130470276
1772557016943222800,5.988222900390625,-0.031868934631347656,-0.005167409777641296,0.001690402626991272
1772557016961996000,6.00699609375,-0.034114837646484375,-0.0016278475522994995,0.005253881216049194
1772557016980769000,6.02576904296875,-0.028278350830078125,-0.007598772644996643,0.004032507538795471
1772557016999542300,6.044542236328125,-0.029623031616210938,-0.0028962641954421997,-0.0006674826145172119
1772557017018315500,6.0633154296875,-0.02588367462158203,-0.007221929728984833,0.002852305769920349
1772557017037088800,6.0820888671875,-0.029326438903808594,-0.004930935800075531,0.011256903409957886
1772557017055861800,6.10086181640625,-0.028127670288085938,-0.009904727339744568,0.005356058478355408
1772557017074635000,6.119635009765625,-0.03785419464111328,-0.007589355111122131,0.0029398947954177856
1772557017093408300,6.138408203125,-0.02722930908203125,-0.009059928357601166,-0.003001391887664795
1772557017112181200,6.15718115234375,-0.031118392944335938,-0.010126501321792603,-0.002824634313583374
1772557017130954500,6.17595458984375,-0.03351593017578125,-0.0016504675149917603,-0.003239750862121582
1772557017149727700,6.194727783203125,-0.03351879119873047,-0.005286134779453278,0.00028383731842041016
1772557017168500700,6.213500732421875,-0.032321929931640625,-0.005537457764148712,0.002812609076499939
1772557017187274000,6.23227392578125,-0.033519744873046875,-0.0063856616616249084,0.01226244866847992
1772557017206047200,6.251047119140625,-0.02753448486328125,-0.0027527883648872375,0.0173264741897583
1772557017224820500,6.269820556640625,-0.029928207397460938,-0.012621596455574036,0.008142322301864624
1772557017243593500,6.288593505859375,-0.0287322998046875,-0.00563349574804306,0.005173578858375549
1772557017262366700,6.30736669921875,-0.025142669677734375,-0.0036995187401771545,-0.0030535459518432617
1772557017281140000,6.326139892578125,-0.038311004638671875,-0.0061383917927742004,-0.0017494410276412964
1772557017299913000,6.344912841796875,-0.029931068420410156,0.0032644495368003845,-0.005371063947677612
1772557017318686200,6.363686279296875,-0.022600173950195312,-0.013523422181606293,-0.006472527980804443
1772557017337459500,6.38245947265625,-0.031129837036132812,-0.007280096411705017,0.0017435550689697266
1772557017356232700,6.401232666015625,-0.033522605895996094,-0.006326332688331604,0.0009103268384933472
1772557017375005700,6.420005615234375,-0.027535438537597656,-0.0061197429895401,0.005808413028717041
1772557017393779000,6.438779052734375,-0.028733253479003906,-0.0013156011700630188,0.0033285021781921387
1772557017412552200,6.45755224609375,-0.03591632843017578,-0.0062454938888549805,0.0009921938180923462
1772557017431325200,6.4763251953125,-0.023946762084960938,-0.005127109587192535,-0.001490965485572815
1772557017450098400,6.495098388671875,-0.03591728210449219,-0.0040745362639427185,-0.005263194441795349
1772557017468871700,6.51387158203125,-0.03831195831298828,-0.009687893092632294,0.004206851124763489
1772557017487644700,6.532644775390625,-0.04190349578857422,-0.0036973506212234497,-0.0006715208292007446
1772557017506418000,6.55141796875,-0.034720420837402344,-0.0012489035725593567,0.001678556203842163
1772557017525191200,6.570191162109375,-0.029932022094726562,0.0009043961763381958,-0.010208174586296082
1772557017543964400,6.58896435546875,-0.025142669677734375,-0.0021803826093673706,0.004106059670448303
1772557017562737400,6.6077373046875,-0.029932022094726562,-0.0024160072207450867,0.0004801899194717407
1772557017581510700,6.6265107421875,-0.02873516082763672,-0.0045609548687934875,0.005215957760810852
1772557017600284000,6.645283935546875,-0.02993297576904297,0.00027992576360702515,0.0063512325286865234
1772557017619057000,6.664056884765625,-0.02993297576904297,-0.003308326005935669,0.003971025347709656
1772557017637830100,6.682830078125,-0.027538299560546875,-0.0007106959819793701,0.003865540027618408
1772557017656603400,6.701603271484375,-0.03472137451171875,-0.009371846914291382,0.0014816373586654663
1772557017675376400,6.72037646484375,-0.04070758819580078,-0.0035318806767463684,-0.003390669822692871
1772557017694149600,6.739149658203125,-0.031131744384765625,-0.001138441264629364,-0.00216791033744812
1772557017712923000,6.7579228515625,-0.03352642059326172,-0.00005596131086349487,0.0025795847177505493
1772557017731696000,6.776696044921875,-0.031131744384765625,-0.008415624499320984,0.005191504955291748
1772557017750469000,6.79546923828125,-0.02634429931640625,-0.006161697208881378,-0.0022341907024383545
1772557017769242400,6.814242431640625,-0.03711891174316406,0.00017585605382919312,0.004847198724746704
1772557017788015600,6.833015625,-0.03352642059326172,-0.01057819277048111,0.005149707198143005
1772557017806788600,6.85178857421875,-0.03592109680175781,-0.004830405116081238,-0.005944445729255676
1772557017825561900,6.870561767578125,-0.0275421142578125,-0.00852186232805252,-0.006805315613746643
1772557017844335000,6.889335205078125,-0.031131744384765625,-0.0047188401222229,0.00268004834651947
1772557017863108000,6.908108154296875,-0.038315773010253906,-0.007363468408584595,-0.0010926127433776855
1772557017881881300,6.92688134765625,-0.031131744384765625,-0.008395843207836151,0.005251020193099976
1772557017900654600,6.945654541015625,-0.032326698303222656,-0.0047360435128211975,0.0064693838357925415
1772557017919427800,6.964427734375,-0.03591728210449219,-0.009600669145584106,0.0019977837800979614
1772557017938200800,6.983200927734375,-0.03711414337158203,-0.004653848707675934,0.008811935782432556
1772557017956974000,7.00197412109375,-0.02873516082763672,-0.0045910850167274475,0.003917410969734192
1772557017975747300,7.020747314453125,-0.028736114501953125,-0.008111469447612762,0.002921745181083679
1772557017994520300,7.039520263671875,-0.0335235595703125,-0.010524488985538483,-0.004150658845901489
1772557018013293600,7.05829345703125,-0.029932022094726562,-0.005521200597286224,0.0037855952978134155
1772557018032066800,7.07706689453125,-0.032326698303222656,-0.0043734535574913025,0.0015025287866592407
1772557018050840000,7.095840087890625,-0.02993488311767578,-0.010488711297512054,0.0028518736362457275
1772557018069613000,7.114613037109375,-0.031129837036132812,-0.0067738741636276245,0.003805220127105713
1772557018088386300,7.13338623046875,-0.031129837036132812,-0.006818056106567383,0.0037618428468704224
1772557018107159600,7.15215966796875,-0.0311279296875,-0.011248886585235596,-0.002274066209793091
1772557018125932500,7.1709326171875,-0.035918235778808594,-0.006301388144493103,0.00086231529712677
1772557018144705800,7.189705810546875,-0.026337623596191406,-0.006314970552921295,-0.0024537891149520874
1772557018163479000,7.20847900390625,-0.03232383728027344,-0.00012577325105667114,-0.00030747056007385254
1772557018182252300,7.227252197265625,-0.035915374755859375,-0.005746915936470032,0.004423215985298157
1772557018201025300,7.246025390625,-0.02753448486328125,-0.0022958219051361084,0.0021506398916244507
1772557018219798500,7.264798583984375,-0.033519744873046875,-0.0033320337533950806,0.004556506872177124
1772557018238571800,7.28357177734375,-0.04070281982421875,-0.00228177011013031,0.0020665228366851807
1772557018257344800,7.3023447265625,-0.038308143615722656,-0.0011222586035728455,-0.0016191452741622925
1772557018276118000,7.321117919921875,-0.026337623596191406,-0.0035903677344322205,-0.0014528483152389526
1772557018294891300,7.339891357421875,-0.037108421325683594,-0.0034732669591903687,0.0009466856718063354
1772557018313664300,7.358664306640625,-0.035912513732910156,-0.009385094046592712,7.450580596923828e-8
1772557018332437500,7.3774375,-0.027532577514648438,0.00039406120777130127,0.0032353997230529785
1772557018351210800,7.396210693359375,-0.03112506866455078,-0.014989592134952545,0.008364066481590271
1772557018369984000,7.41498388671875,-0.038308143615722656,-0.0009257718920707703,0.0017354786396026611
1772557018388757000,7.433757080078125,-0.03232288360595703,-0.010129295289516449,0.005566224455833435
1772557018407530200,7.4525302734375,-0.026338577270507812,0.0006404593586921692,0.0029243826866149902
1772557018426303200,7.47130322265625,-0.035915374755859375,-0.0019383355975151062,0.004063263535499573
1772557018445076500,7.490076416015625,-0.035915374755859375,-0.0029828399419784546,-0.0007574111223220825
1772557018463849700,7.508849609375,-0.023946762084960938,-0.007683306932449341,0.006644606590270996
1772557018482623000,7.527623046875,-0.03471946716308594,-0.002051249146461487,0.005214124917984009
1772557018501396000,7.54639599609375,-0.034717559814453125,-0.003243394196033478,0.0017896145582199097
1772557018520169200,7.565169189453125,-0.029931068420410156,-0.0044899433851242065,0.0016015619039535522
1772557018538942500,7.5839423828125,-0.027536392211914062,-0.01019325852394104,0.004434540867805481
1772557018557715700,7.6027158203125,-0.03591442108154297,-0.0067770034074783325,-0.007605448365211487
1772557018576488700,7.62148876953125,-0.03352069854736328,-0.0006435737013816833,0.00037573277950286865
1772557018595262000,7.640261962890625,-0.031126976013183594,0.0017438381910324097,0.0002769976854324341
1772557018614035200,7.65903515625,-0.03471851348876953,-0.003041312098503113,-0.001948237419128418
1772557018632808200,7.67780810546875,-0.0335235595703125,-0.006583079695701599,0.006332695484161377
1772557018651581400,7.69658154296875,-0.028736114501953125,-0.0006002187728881836,0.0001561194658279419
1772557018670354700,7.715354736328125,-0.0275421142578125,-0.00429747998714447,0.0037482529878616333
1772557018689127700,7.734127685546875,-0.031133651733398438,0.00039426982402801514,-0.003618299961090088
1772557018707901000,7.75290087890625,-0.028738021850585938,-0.003287471830844879,-0.009424790740013123
1772557018726674200,7.771674072265625,-0.028734207153320312,-0.0032193809747695923,-0.008177056908607483
1772557018745447400,7.790447509765625,-0.038311004638671875,0.0015065297484397888,-0.003359884023666382
1772557018764220400,7.809220458984375,-0.028736114501953125,-0.008895531296730042,0.0015772730112075806
1772557018782993700,7.82799365234375,-0.026343345642089844,-0.007702887058258057,0.007424220442771912
1772557018801767000,7.846766845703125,-0.03472423553466797,-0.0029862746596336365,0.009881258010864258
1772557018820540000,7.865539794921875,-0.034720420837402344,-0.006836824119091034,0.00390566885471344
1772557018839313200,7.884313232421875,-0.02634143829345703,-0.012759022414684296,0.0019767284393310547
1772557018858086400,7.90308642578125,-0.03232860565185547,-0.008273027837276459,-0.00038868188858032227
1772557018876859400,7.921859375,-0.03472328186035156,-0.008464403450489044,-0.0031578093767166138
1772557018895632600,7.940632568359375,-0.032326698303222656,-0.0021140724420547485,0.005186676979064941
1772557018914406000,7.959406005859375,-0.026342391967773438,-0.004707351326942444,-0.0016708225011825562
1772557018933179100,7.97817919921875,-0.02753925323486328,0.0011803805828094482,-0.00554288923740387
1772557018951952100,7.9969521484375,-0.040706634521484375,-0.007241763174533844,0.0005561411380767822
1772557018970725400,8.015725341796875,-0.028734207153320312,-0.0034385547041893005,0.003061950206756592
1772557018989498600,8.03449853515625,-0.03352069854736328,-0.0010805949568748474,0.0005723237991333008
1772557019008271600,8.053271728515625,-0.03471660614013672,-0.008190415799617767,0.0010327845811843872
1772557019027044900,8.072044921875,-0.02753448486328125,-0.0033400356769561768,0.0018831640481948853
1772557019045818000,8.090818115234375,-0.02753734588623047,-0.0010036304593086243,-0.0006633251905441284
1772557019064591000,8.109591064453125,-0.02873516082763672,-0.004550360143184662,0.0029495954513549805
1772557019083364400,8.1283642578125,-0.03591442108154297,-0.009051874279975891,0.008138686418533325
1772557019102137600,8.1471376953125,-0.025142669677734375,0.00410345196723938,0.0063310712575912476
1772557019120910600,8.16591064453125,-0.025145530700683594,-0.006956659257411957,-0.0006979107856750488
1772557019139683800,8.184683837890624,-0.027541160583496094,-0.006740696728229523,0.0014006197452545166
1772557019158457000,8.20345703125,-0.03113269805908203,-0.004668049514293671,-0.0007371753454208374
1772557019177230300,8.222230224609374,-0.026345252990722656,0.0014868974685668945,0.0013469904661178589
1772557019196003300,8.24100341796875,-0.022754669189453125,-0.005490928888320923,0.007543504238128662
1772557019214776600,8.259776611328125,-0.03472328186035156,0.0037319734692573547,-0.007067754864692688
1772557019233549800,8.2785498046875,-0.02873706817626953,-0.0022056996822357178,-0.0008400976657867432
1772557019252322800,8.29732275390625,-0.026343345642089844,-0.004362061619758606,0.007714226841926575
1772557019271096000,8.316095947265625,-0.03831195831298828,-0.00558924674987793,0.005192995071411133
1772557019289869300,8.334869384765625,-0.025142669677734375,-0.003201618790626526,0.00183810293674469
1772557019308642300,8.353642333984375,-0.026337623596191406,0.0005986914038658142,-0.0018773376941680908
1772557019327415600,8.37241552734375,-0.029929161071777344,-0.0007620453834533691,-0.0006423145532608032
1772557019346188800,8.391188720703125,-0.02992534637451172,-0.0016997158527374268,-0.0005571544170379639
1772557019364961800,8.4099619140625,-0.020349502563476562,-0.000516064465045929,0.0006733536720275879
1772557019383735000,8.428735107421875,-0.0239410400390625,-0.004000090062618256,0.0042777955532073975
1772557019402508300,8.44750830078125,-0.03351783752441406,-0.00027363747358322144,0.0029603540897369385
1772557019421281500,8.466281494140626,-0.028731346130371094,0.003091670572757721,0.0004376322031021118
1772557019440054500,8.485054443359376,-0.02992725372314453,-0.010067187249660492,-0.00036779046058654785
1772557019458827800,8.503827880859374,-0.029928207397460938,0.00197785347700119,0.0029596537351608276
1772557019477601000,8.52260107421875,-0.021547317504882812,-0.0029116198420524597,0.004331409931182861
1772557019496374000,8.5413740234375,-0.024839401245117188,0.0007552877068519592,0.0016845911741256714
1772557019515147300,8.560147216796874,-0.02933025360107422,-0.004935123026371002,0.0075203776359558105
1772557019533920500,8.57892041015625,-0.028130531311035156,-0.004762791097164154,0.009968936443328857
1772557019552693500,8.597693603515625,-0.02693462371826172,-0.0037219375371932983,0.0003712475299835205
1772557019571466800,8.616466796875,-0.03172016143798828,-0.007149346172809601,0.004102587699890137
1772557019590239700,8.63523974609375,-0.0377044677734375,-0.0014116838574409485,-0.005432114005088806
1772557019609013000,8.654012939453125,-0.03052043914794922,-0.001154184341430664,-0.007730856537818909
1772557019627786200,8.6727861328125,-0.02812480926513672,0.0014358311891555786,-0.002901330590248108
1772557019646559200,8.691559326171875,-0.026926040649414062,0.0026748627424240112,0.008983790874481201
1772557019665332500,8.71033251953125,-0.029318809509277344,-0.0054762884974479675,0.0174952894449234
1772557019684105700,8.729105712890625,-0.025727272033691406,-0.0006377846002578735,0.007723301649093628
1772557019702878700,8.747878662109375,-0.02991771697998047,0.0027466118335723877,0.0029929429292678833
1772557019721652000,8.76665185546875,-0.02752208709716797,-0.008228018879890442,-0.01005275547504425
1772557019740425200,8.78542529296875,-0.025127410888671875,-0.00225270539522171,-0.006403923034667969
1772557019759198200,8.8041982421875,-0.02752208709716797,0.005201682448387146,0.004346087574958801
1772557019777971500,8.822971435546876,-0.024979591369628906,-0.004267476499080658,0.007886350154876709
1772557019796744700,8.84174462890625,-0.032311439514160156,-0.0017900541424751282,0.017427384853363037
1772557019815517700,8.860517578125,-0.021238327026367188,-0.005533210933208466,0.006718114018440247
1772557019834291000,8.879291015625,-0.026178359985351562,-0.0019512027502059937,0.0030560046434402466
1772557019853064200,8.898064208984374,-0.03589916229248047,-0.0010503381490707397,-0.0027563124895095825
1772557019871837200,8.916837158203125,-0.031110763549804688,0.0070937201380729675,-0.0038539618253707886
1772557019890610400,8.9356103515625,-0.02976703643798828,-0.0013166740536689758,-0.005052477121353149
1772557019909383700,8.9543837890625,-0.02692413330078125,-0.00446358323097229,0.004436880350112915
1772557019928156700,8.97315673828125,-0.024529457092285156,-0.0019527897238731384,0.005648791790008545
1772557019946930000,8.991929931640625,-0.029317855834960938,-0.0031497180461883545,0.010298490524291992
1772557019965703200,9.010703125,-0.029317855834960938,-0.005658075213432312,0.0069468021392822266
1772557019984476200,9.02947607421875,-0.032909393310546875,-0.002012379467487335,0.0009379535913467407
1772557020003249400,9.04824951171875,-0.02692413330078125,-0.005754023790359497,0.0021090060472488403
1772557020022022400,9.0670224609375,-0.02572345733642578,-0.002977900207042694,0.002180621027946472
1772557020040795600,9.085795654296875,-0.02811717987060547,-0.005310520529747009,0.008118748664855957
1772557020059569000,9.10456884765625,-0.025724411010742188,-0.001841917634010315,0.006898447871208191
1772557020078342000,9.123341796875,-0.029314041137695312,-0.00080060213804245,0.008075177669525146
1772557020097115100,9.142115234375,-0.02572345733642578,-0.0019512027502059937,-0.005164474248886108
1772557020115888000,9.16088818359375,-0.020933151245117188,-0.009237952530384064,-0.007230848073959351
1772557020134661400,9.179661376953124,-0.028115272521972656,0.0027110502123832703,-0.0037446320056915283
1772557020153434600,9.1984345703125,-0.028118133544921875,-0.002441912889480591,-0.008589059114456177
1772557020172207600,9.21720751953125,-0.030508995056152344,0.003974832594394684,0.0059730857610702515
1772557020190980900,9.23598095703125,-0.022127151489257812,-0.004543088376522064,0.00028374791145324707
1772557020209753900,9.25475390625,-0.026915550231933594,-0.011506550014019012,0.014592662453651428
1772557020228527000,9.273527099609375,-0.026917457580566406,-0.004328310489654541,0.010842293500900269
1772557020247300400,9.29230029296875,-0.031707763671875,-0.005731821060180664,0.003574386239051819
1772557020266073300,9.3110732421875,-0.01734447479248047,-0.004389330744743347,0.0011001378297805786
1772557020284846600,9.3298466796875,-0.030513763427734375,0.0016339942812919617,0.001946285367012024
1772557020303619600,9.34861962890625,-0.030515670776367188,-0.010381504893302917,-0.0028124749660491943
1772557020322392800,9.367392822265625,-0.032912254333496094,-0.0010234788060188293,-0.0032367557287216187
1772557020341165800,9.386165771484375,-0.024534225463867188,-0.0010361596941947937,-0.0018128156661987305
1772557020359939000,9.40493896484375,-0.03530693054199219,-0.0044117271900177,0.005243405699729919
1772557020378712300,9.42371240234375,-0.020941734313964844,-0.009043186902999878,0.013774499297142029
1772557020397485300,9.4424853515625,-0.018548965454101562,-0.006703890860080719,0.013571128249168396
1772557020416258600,9.461258544921876,-0.025730133056640625,-0.010421514511108398,0.013780400156974792
1772557020435031600,9.480031494140626,-0.024535179138183594,0.00028058141469955444,0.007407873868942261
1772557020453804800,9.4988046875,-0.02453327178955078,-0.005593203008174896,0.000544622540473938
1772557020472577800,9.517577880859376,-0.02932262420654297,-0.001218952238559723,-0.006879881024360657
1772557020491351000,9.53635107421875,-0.030518531799316406,-0.0010248944163322449,-0.005640923976898193
1772557020510124000,9.5551240234375,-0.01615142822265625,-0.008090659976005554,-0.004113331437110901
1772557020528897300,9.573897216796874,-0.025727272033691406,-0.0008218288421630859,-0.0017719268798828125
1772557020547670300,9.592670166015624,-0.03171348571777344,-0.0020835697650909424,0.0030507445335388184
1772557020566443500,9.611443603515625,-0.023332595825195312,0.00047141313552856445,0.0008247494697570801
1772557020585216800,9.630216796875,-0.019739151000976562,-0.0005560517311096191,0.0007946044206619263
1772557020603989800,9.64898974609375,-0.025722503662109375,-0.006564386188983917,0.005654782056808472
1772557020622763000,9.667762939453125,-0.03649711608886719,-0.005330681800842285,0.015150174498558044
1772557020641536000,9.686535888671875,-0.02452373504638672,-0.002881474792957306,0.009290739893913269
1772557020660309200,9.705309326171875,-0.02213001251220703,-0.002834305167198181,0.009334638714790344
1772557020679082200,9.724082275390625,-0.024524688720703125,0.0004989355802536011,-0.0063898563385009766
1772557020697855500,9.74285546875,-0.03051471710205078,-0.0038480907678604126,-0.007245108485221863
1772557020716628500,9.76162841796875,-0.02333831787109375,0.005459293723106384,-0.006900161504745483
1772557020735401700,9.780401611328125,-0.02573680877685547,0.005932077765464783,-0.008884772658348083
1772557020754174700,9.7991748046875,-0.02692890167236328,0.007883504033088684,0.007828116416931152
1772557020772948000,9.817947998046876,-0.02572345733642578,0.00045880675315856934,0.006560966372489929
1772557020791721000,9.836720947265626,-0.032904624938964844,-0.0021410584449768066,0.01675264537334442
1772557020810494200,9.855494140625,-0.02811431884765625,-0.002769187092781067,0.010582149028778076
