time,seconds_elapsed,z,y,x
1772557011141310700,0.186310791015625,-0.00015271181473508477,0.0007635590736754239,0
1772557011169470200,0.21447021484375,0.0004581354442052543,0.001985253533348441,-0.0007635590736754239
1772557011188243500,0.233243408203125,-0.00015271181473508477,-0.0004581354442052543,-0.0006108472589403391
1772557011207016700,0.2520166015625,-0.00015271181473508477,-0.0004581354442052543,0
1772557011225789700,0.270789794921875,0.0004581354442052543,0.0007635590736754239,0
1772557011244563000,0.28956298828125,-0.00015271181473508477,-0.00030542362947016954,0.0006108472589403391
1772557011263336000,0.3083359375,-0.00015271181473508477,0.00030542362947016954,0.0012216945178806782
1772557011282109200,0.327109130859375,-0.00015271181473508477,0.0007635590736754239,-0.0006108472589403391
1772557011300882200,0.345882080078125,0.0004581354442052543,0.0007635590736754239,0
1772557011319655400,0.364655517578125,-0.0007635590736754239,0.00015271181473508477,-0.0006108472589403391
1772557011338428700,0.3834287109375,0.0004581354442052543,0.00015271181473508477,-0.0012216945178806782
1772557011357201700,0.40220166015625,-0.00015271181473508477,0.00015271181473508477,-0.0012216945178806782
1772557011375975000,0.420974853515625,-0.0007635590736754239,-0.0016798300202935934,-0.0012216945178806782
1772557011394748000,0.439747802734375,-0.00015271181473508477,-0.0004581354442052543,-0.0012216945178806782
1772557011413521200,0.458521240234375,0.0016798300202935934,0.00030542362947016954,0.0006108472589403391
1772557011432294100,0.477294189453125,0.0004581354442052543,0.0007635590736754239,0
1772557011451067400,0.4960673828125,-0.0007635590736754239,0.00015271181473508477,0
1772557011469840400,0.51484033203125,0.0004581354442052543,-0.0004581354442052543,0
1772557011488613600,0.533613525390625,0.0004581354442052543,0.00030542362947016954,0.0006108472589403391
1772557011507387000,0.552386962890625,-0.0007635590736754239,0.0007635590736754239,-0.0006108472589403391
1772557011526160000,0.571159912109375,-0.00015271181473508477,-0.0004581354442052543,0.0006108472589403391
1772557011544933000,0.58993310546875,-0.001374406274408102,-0.0004581354442052543,0
1772557011563706000,0.6087060546875,0.0004581354442052543,0.0009162708884105086,0.0006108472589403391
1772557011582479400,0.627479248046875,-0.0007635590736754239,-0.0004581354442052543,0
1772557011601252400,0.64625244140625,0.0010689827613532543,0.00015271181473508477,0
1772557011620025600,0.665025634765625,0.0004581354442052543,-0.00030542362947016954,0.0006108472589403391
1772557011638798800,0.683798828125,0.0010689827613532543,-0.0016798300202935934,-0.0012216945178806782
1772557011657571800,0.70257177734375,-0.00015271181473508477,0.0007635590736754239,0
1772557011676345000,0.721344970703125,-0.00015271181473508477,-0.0004581354442052543,-0.0006108472589403391
1772557011695118000,0.7401181640625,0.0004581354442052543,-0.0004581354442052543,-0.0006108472589403391
1772557011713891300,0.758891357421875,-0.00015271181473508477,-0.0004581354442052543,-0.0006108472589403391
1772557011732664600,0.77766455078125,0.0004581354442052543,-0.0004581354442052543,-0.0006108472589403391
1772557011751437600,0.7964375,-0.00015271181473508477,-0.0004581354442052543,-0.0012216945178806782
1772557011770210800,0.8152109375,-0.001374406274408102,-0.0010689827613532543,0
1772557011788983800,0.83398388671875,-0.00015271181473508477,0.0015271181473508477,0.0006108472589403391
1772557011807757000,0.852757080078125,-0.00015271181473508477,0.00015271181473508477,0
1772557011826530300,0.8715302734375,0.0010689827613532543,-0.0009162708884105086,0.0006108472589403391
1772557011845303300,0.89030322265625,-0.0007635590736754239,0.00030542362947016954,0.0006108472589403391
1772557011864076500,0.90907666015625,-0.00015271181473508477,-0.00030542362947016954,0.0006108472589403391
1772557011882849500,0.927849609375,0.0004581354442052543,-0.0004581354442052543,-0.0006108472589403391
1772557011901622800,0.946622802734375,-0.00015271181473508477,0.0007635590736754239,0
1772557011920396000,0.96539599609375,-0.00015271181473508477,-0.0010689827613532543,0
1772557011939169000,0.9841689453125,0.0004581354442052543,0.00015271181473508477,-0.0006108472589403391
1772557011957942300,1.0029423828125,-0.00015271181473508477,-0.0004581354442052543,0
1772557011976715300,1.02171533203125,0.0004581354442052543,0.00030542362947016954,0.0006108472589403391
1772557011995488500,1.040488525390625,-0.00015271181473508477,-0.0004581354442052543,-0.0006108472589403391
1772557012014261800,1.05926171875,-0.00015271181473508477,0.00015271181473508477,0
1772557012033034800,1.07803466796875,-0.00015271181473508477,0.001374406274408102,0
1772557012051808000,1.09680810546875,-0.00015271181473508477,0.00015271181473508477,0
1772557012070581000,1.1155810546875,0.0004581354442052543,0.00030542362947016954,0.0006108472589403391
1772557012089354200,1.134354248046875,-0.00015271181473508477,-0.0010689827613532543,-0.0006108472589403391
1772557012108127500,1.15312744140625,0.0004581354442052543,-0.00030542362947016954,0.0012216945178806782
1772557012126900500,1.171900390625,-0.00015271181473508477,0.0007635590736754239,0
1772557012145673700,1.190673828125,-0.00015271181473508477,0.00015271181473508477,-0.0006108472589403391
1772557012164446700,1.20944677734375,-0.00015271181473508477,-0.0010689827613532543,0.0007635590736754239
1772557012183220000,1.228219970703125,-0.00015271181473508477,0.0006108472589403391,-0.0006108472589403391
1772557012201993200,1.2469931640625,-0.00015271181473508477,0.0007635590736754239,0.00015271181473508477
1772557012220766200,1.26576611328125,-0.00015271181473508477,0.00015271181473508477,0.00015271181473508477
1772557012239539500,1.28453955078125,-0.00015271181473508477,0.00015271181473508477,0.00015271181473508477
1772557012258312400,1.3033125,-0.0007635590736754239,0.00015271181473508477,0.0007635590736754239
1772557012277085700,1.322085693359375,-0.00015271181473508477,0.00015271181473508477,0.00015271181473508477
1772557012295859000,1.34085888671875,-0.0007635590736754239,0.00015271181473508477,0.0007635590736754239
1772557012314632000,1.3596318359375,0.0004581354442052543,0,-0.0004581354442052543
1772557012333405200,1.3784052734375,-0.0007635590736754239,0.00015271181473508477,0.00015271181473508477
1772557012352178200,1.39717822265625,-0.00015271181473508477,0.00015271181473508477,0.0007635590736754239
1772557012370951400,1.415951416015625,0.0004581354442052543,0.0006108472589403391,-0.0012216945178806782
1772557012389724700,1.434724609375,0.0004581354442052543,0.00015271181473508477,0.00015271181473508477
1772557012408497700,1.45349755859375,0.0010689827613532543,-0.0004581354442052543,0.00015271181473508477
1772557012427271000,1.47227099609375,0.0004581354442052543,-0.0004581354442052543,0.00015271181473508477
1772557012446044200,1.491044189453125,-0.00015271181473508477,-0.0006108472589403391,-0.0010689827613532543
1772557012464817200,1.509817138671875,0.0004581354442052543,-0.0004581354442052543,0.00015271181473508477
1772557012483590400,1.52859033203125,-0.00015271181473508477,-0.0006108472589403391,-0.0010689827613532543
1772557012502363400,1.54736328125,0.0004581354442052543,-0.0004581354442052543,0.00015271181473508477
1772557012521136600,1.56613671875,0.0004581354442052543,-0.0004581354442052543,0.00015271181473508477
1772557012539910000,1.584909912109375,0.0010689827613532543,-0.0004581354442052543,0.00015271181473508477
1772557012558683000,1.603682861328125,0.0004581354442052543,0.00015271181473508477,0.0007635590736754239
1772557012577456000,1.6224560546875,0.0004581354442052543,-0.0004581354442052543,0.0007635590736754239
1772557012596229000,1.64122900390625,0.0010689827613532543,0.0006108472589403391,-0.0006108472589403391
1772557012615002400,1.66000244140625,0.0004581354442052543,-0.0010689827613532543,-0.0004581354442052543
1772557012633775600,1.678775634765625,-0.0007635590736754239,0.00015271181473508477,-0.0004581354442052543
1772557012652548600,1.697548583984375,-0.00015271181473508477,0.0006108472589403391,-0.0006108472589403391
1772557012671321900,1.71632177734375,0.0004581354442052543,-0.0010689827613532543,-0.0004581354442052543
1772557012690094800,1.7350947265625,0.0004581354442052543,0.0007635590736754239,0.0007635590736754239
1772557012708868000,1.7538681640625,0.0004581354442052543,-0.0004581354442052543,0.001374406274408102
1772557012727641300,1.772641357421875,0.0004581354442052543,-0.0004581354442052543,0.0007635590736754239
1772557012746414300,1.791414306640625,-0.0007635590736754239,0,-0.0006108472589403391
1772557012765187600,1.8101875,0.0010689827613532543,-0.0010689827613532543,0.00015271181473508477
1772557012783960800,1.8289609375,0.0004581354442052543,-0.0006108472589403391,-0.0022906772792339325
1772557012802733800,1.84773388671875,-0.00015271181473508477,-0.0004581354442052543,0.00015271181473508477
1772557012821507000,1.866507080078125,0.0004581354442052543,-0.0006108472589403391,-0.0004581354442052543
1772557012840280300,1.8852802734375,-0.0007635590736754239,0.0006108472589403391,-0.0006108472589403391
1772557012859053300,1.90405322265625,0.0004581354442052543,0.00015271181473508477,0
1772557012877826600,1.92282666015625,-0.0007635590736754239,-0.0010689827613532543,-0.0004581354442052543
1772557012896599600,1.941599609375,0.0004581354442052543,-0.0004581354442052543,0.001374406274408102
1772557012915372800,1.960372802734375,-0.00015271181473508477,-0.0004581354442052543,0.00015271181473508477
1772557012934146000,1.97914599609375,-0.00015271181473508477,-0.0004581354442052543,-0.0004581354442052543
1772557012952919000,1.9979189453125,-0.00015271181473508477,0.00015271181473508477,0
1772557012971692300,2.0166923828125,-0.00015271181473508477,0.00015271181473508477,0.00015271181473508477
1772557012990465500,2.035465576171875,-0.00015271181473508477,0.00015271181473508477,0.00015271181473508477
1772557013009238500,2.054238525390625,0.0004581354442052543,-0.0004581354442052543,0.00015271181473508477
1772557013028011800,2.07301171875,-0.00015271181473508477,-0.0004581354442052543,0.00015271181473508477
1772557013046785000,2.091784912109375,-0.00015271181473508477,0.0007635590736754239,0.001374406274408102
1772557013065558000,2.11055810546875,0.0010689827613532543,0.001374406274408102,0.001985253533348441
1772557013084331300,2.129331298828125,0.0004581354442052543,0.00015271181473508477,-0.0006108472589403391
1772557013103104500,2.1481044921875,-0.00015271181473508477,0,-0.0004581354442052543
1772557013121877500,2.16687744140625,-0.0007635590736754239,0.0007635590736754239,0.00015271181473508477
1772557013140650800,2.185650634765625,-0.0007635590736754239,0.00015271181473508477,0.00015271181473508477
1772557013159424000,2.204424072265625,-0.00015271181473508477,0,-0.0004581354442052543
1772557013178197000,2.223197021484375,-0.00015271181473508477,-0.0004581354442052543,0.00015271181473508477
1772557013196970200,2.24197021484375,0.0004581354442052543,-0.0006108472589403391,-0.0004581354442052543
1772557013215743200,2.2607431640625,0.0004581354442052543,-0.0010689827613532543,0.00015271181473508477
1772557013234516500,2.2795166015625,-0.00015271181473508477,0.0007635590736754239,0
1772557013253289700,2.298289794921875,-0.00015271181473508477,-0.0012216945178806782,-0.0004581354442052543
1772557013272062700,2.317062744140625,-0.00015271181473508477,0.0007635590736754239,0.00015271181473508477
1772557013290836000,2.3358359375,0.0004581354442052543,-0.0016798300202935934,-0.0004581354442052543
1772557013309609200,2.354609130859375,-0.00015271181473508477,0,-0.0004581354442052543
1772557013328382200,2.37338232421875,0.0004581354442052543,-0.0004581354442052543,0.00015271181473508477
1772557013347155500,2.392155517578125,-0.00015271181473508477,-0.0004581354442052543,-0.0004581354442052543
1772557013365928700,2.4109287109375,0.0004581354442052543,-0.0004581354442052543,-0.0004581354442052543
1772557013384701700,2.42970166015625,0.0010689827613532543,-0.0010689827613532543,0.0007635590736754239
1772557013403475000,2.448474853515625,-0.00015271181473508477,0.00015271181473508477,0.00015271181473508477
1772557013422248200,2.467248291015625,-0.00015271181473508477,0.00015271181473508477,0.00015271181473508477
1772557013441021200,2.486021240234375,-0.0007635590736754239,0.0006108472589403391,-0.0006108472589403391
1772557013459794400,2.50479443359375,-0.0007635590736754239,0.0007635590736754239,0
1772557013478567700,2.523567626953125,-0.00015271181473508477,0.0007635590736754239,0.001374406274408102
1772557013497340700,2.542340576171875,0.0010689827613532543,0.0006108472589403391,-0.0012216945178806782
1772557013516114000,2.561114013671875,0.0004581354442052543,-0.0004581354442052543,0.0007635590736754239
1772557013534887200,2.57988720703125,0.0004581354442052543,0.00015271181473508477,0.00015271181473508477
1772557013553660200,2.59866015625,-0.001985253533348441,-0.0010689827613532543,-0.0004581354442052543
1772557013572433400,2.617433349609375,-0.0007635590736754239,0.00015271181473508477,0.001374406274408102
1772557013591206700,2.63620654296875,0.0004581354442052543,0.00015271181473508477,0.0007635590736754239
1772557013609979600,2.654979736328125,-0.00015271181473508477,0.0006108472589403391,-0.0006108472589403391
1772557013628753000,2.6737529296875,-0.00015271181473508477,-0.0004581354442052543,0.0007635590736754239
1772557013647526000,2.69252587890625,-0.00015271181473508477,0.00015271181473508477,0.00015271181473508477
1772557013666299100,2.711299072265625,-0.00015271181473508477,0.0007635590736754239,0.0007635590736754239
1772557013685072400,2.730072265625,0.0004581354442052543,-0.0004581354442052543,0.0007635590736754239
1772557013703845400,2.748845458984375,0.0004581354442052543,0.0006108472589403391,-0.0006108472589403391
1772557013722618600,2.76761865234375,0.0010689827613532543,0,-0.0004581354442052543
1772557013741392000,2.786391845703125,0.0010689827613532543,0,-0.0004581354442052543
1772557013760164900,2.805164794921875,0.0010689827613532543,-0.0012216945178806782,-0.0004581354442052543
1772557013778938000,2.823938232421875,0.0010689827613532543,0.0006108472589403391,-0.0012216945178806782
1772557013797711400,2.84271142578125,0.0010689827613532543,-0.0004581354442052543,0.0007635590736754239
1772557013816484600,2.861484619140625,-0.00015271181473508477,0.00015271181473508477,0.0007635590736754239
1772557013835257600,2.880257568359375,0.0004581354442052543,-0.0004581354442052543,0.00015271181473508477
1772557013854030800,2.89903076171875,0.0010689827613532543,-0.0006108472589403391,-0.0004581354442052543
1772557013872804000,2.91780419921875,0.0004581354442052543,0.00015271181473508477,0.001985253533348441
1772557013891577000,2.9365771484375,-0.00015271181473508477,0,-0.0004581354442052543
1772557013910350300,2.955350341796875,0.00030542362947016954,0.0007635590736754239,-0.0006108472589403391
1772557013929123600,2.97412353515625,0.00030542362947016954,-0.00030542362947016954,0.00015271181473508477
1772557013947896600,2.992896484375,-0.0009162708884105086,-0.0004581354442052543,-0.0012216945178806782
1772557013966669800,3.011669921875,-0.00030542362947016954,0.0009162708884105086,0.0007635590736754239
1772557013985442800,3.03044287109375,-0.00030542362947016954,-0.0009162708884105086,-0.0004581354442052543
1772557014004216000,3.049216064453125,-0.00030542362947016954,0.00015271181473508477,-0.0010689827613532543
1772557014022989300,3.0679892578125,-0.00030542362947016954,0.00015271181473508477,0.00015271181473508477
1772557014041762600,3.086762451171875,0.00030542362947016954,-0.0010689827613532543,-0.0010689827613532543
1772557014060535600,3.10553564453125,0.00030542362947016954,-0.00030542362947016954,0.0007635590736754239
1772557014079308800,3.124308837890625,-0.00030542362947016954,-0.0010689827613532543,-0.0004581354442052543
1772557014098082000,3.14308203125,-0.00030542362947016954,0.00015271181473508477,0.00015271181473508477
1772557014116855000,3.16185498046875,-0.00030542362947016954,0.00015271181473508477,-0.0018325417768210173
1772557014135628300,3.180628173828125,0.00030542362947016954,0.00015271181473508477,-0.0024433890357613564
1772557014154401500,3.199401611328125,-0.0009162708884105086,-0.0004581354442052543,-0.0022906772792339325
1772557014173174500,3.218174560546875,0.00030542362947016954,0.0007635590736754239,-0.0004581354442052543
1772557014191947800,3.23694775390625,-0.00030542362947016954,0.0007635590736754239,-0.0004581354442052543
1772557014210721000,3.255720947265625,0.00030542362947016954,0.00015271181473508477,-0.0024433890357613564
1772557014229494000,3.274493896484375,-0.00030542362947016954,0.001374406274408102,-0.0018325417768210173
1772557014248267300,3.293267333984375,0.0009162708884105086,-0.0004581354442052543,-0.0018325417768210173
1772557014267040500,3.31204052734375,0.0009162708884105086,-0.0004581354442052543,-0.0010689827613532543
1772557014285813500,3.3308134765625,0.0009162708884105086,-0.0004581354442052543,0.00015271181473508477
1772557014304586800,3.349586669921875,-0.0009162708884105086,0.0007635590736754239,-0.0004581354442052543
1772557014323360000,3.368360107421875,-0.00030542362947016954,-0.0009162708884105086,-0.0004581354442052543
1772557014342133000,3.387133056640625,0.0009162708884105086,-0.0010689827613532543,-0.0010689827613532543
1772557014360906200,3.40590625,-0.00030542362947016954,-0.0004581354442052543,-0.0004581354442052543
1772557014379679500,3.424679443359375,-0.00030542362947016954,0.00015271181473508477,-0.0004581354442052543
1772557014398452500,3.443452392578125,0.00030542362947016954,0.001374406274408102,0.00015271181473508477
1772557014417225700,3.462225830078125,0.00030542362947016954,0.00030542362947016954,0.0007635590736754239
1772557014435999000,3.4809990234375,0.0009162708884105086,-0.0004581354442052543,-0.0004581354442052543
1772557014454772200,3.499772216796875,0.00030542362947016954,0.00015271181473508477,-0.0004581354442052543
1772557014473545200,3.518545166015625,0.00030542362947016954,0.0007635590736754239,0.00015271181473508477
1772557014492318500,3.537318359375,0.00030542362947016954,-0.00030542362947016954,0.00015271181473508477
1772557014511091700,3.556091796875,-0.00030542362947016954,0.0007635590736754239,-0.0006108472589403391
1772557014529864700,3.57486474609375,0.00030542362947016954,0.00030542362947016954,0.0007635590736754239
1772557014548638000,3.593637939453125,0.00030542362947016954,0.00015271181473508477,0.00015271181473508477
1772557014567411200,3.6124111328125,-0.00030542362947016954,0.0007635590736754239,0
1772557014586184200,3.63118408203125,-0.00030542362947016954,-0.0004581354442052543,-0.0004581354442052543
1772557014604957400,3.64995751953125,0.00030542362947016954,0.00015271181473508477,0.00015271181473508477
1772557014623730700,3.668730712890625,0.00030542362947016954,0.00030542362947016954,0.0007635590736754239
1772557014642503700,3.687503662109375,0.0009162708884105086,0.00030542362947016954,0.0007635590736754239
1772557014661277000,3.70627685546875,-0.00030542362947016954,0.00015271181473508477,-0.0004581354442052543
1772557014680050200,3.72505029296875,0.0009162708884105086,0.0021379655227065086,0.0006108472589403391
1772557014698823400,3.743823486328125,0.00030542362947016954,-0.0015271181473508477,0.0007635590736754239
1772557014717596400,3.762596435546875,0.0009162708884105086,0.00015271181473508477,-0.0004581354442052543
1772557014736369700,3.78136962890625,-0.00030542362947016954,-0.00030542362947016954,0.001374406274408102
1772557014755143000,3.800142822265625,0.00030542362947016954,0.0007635590736754239,0.00015271181473508477
1772557014773916000,3.818916015625,-0.00030542362947016954,-0.00030542362947016954,0.00015271181473508477
1772557014792689200,3.837689208984375,-0.00030542362947016954,-0.00030542362947016954,0.00015271181473508477
1772557014811462400,3.85646240234375,0.00030542362947016954,-0.00030542362947016954,0.0007635590736754239
1772557014830235400,3.8752353515625,-0.00030542362947016954,0.00030542362947016954,0.0007635590736754239
1772557014849008600,3.894008544921875,0.00030542362947016954,0.00015271181473508477,0.00015271181473508477
1772557014867782000,3.912781982421875,-0.00030542362947016954,0.0007635590736754239,-0.0010689827613532543
1772557014886555000,3.931554931640625,0.0009162708884105086,0.0007635590736754239,-0.0012216945178806782
1772557014905328000,3.950328125,0.0009162708884105086,0.00015271181473508477,-0.0004581354442052543
1772557014924101400,3.969101318359375,-0.00030542362947016954,0.0015271181473508477,0.0007635590736754239
1772557014942874600,3.98787451171875,-0.00030542362947016954,-0.00030542362947016954,0.00015271181473508477
1772557014961647600,4.006647705078125,0.00030542362947016954,0.00030542362947016954,0.001374406274408102
1772557014980420900,4.0254208984375,-0.00030542362947016954,-0.0009162708884105086,0.0007635590736754239
1772557014999194000,4.044194091796875,-0.00030542362947016954,0.00030542362947016954,0.0007635590736754239
1772557015017967000,4.062967041015625,0.00030542362947016954,-0.00030542362947016954,0.00015271181473508477
1772557015036740400,4.081740234375,-0.00030542362947016954,0.00015271181473508477,-0.0010689827613532543
1772557015055513600,4.100513671875,0.00030542362947016954,0.00015271181473508477,0.00015271181473508477
1772557015074286600,4.11928662109375,0.00030542362947016954,0.00030542362947016954,0.001374406274408102
1772557015093059800,4.138059814453125,-0.00030542362947016954,0.00030542362947016954,0.00015271181473508477
1772557015111833000,4.1568330078125,-0.00030542362947016954,-0.0009162708884105086,-0.0004581354442052543
1772557015130606000,4.175606201171875,-0.00030542362947016954,0.00030542362947016954,0.001374406274408102
1772557015149379300,4.19437939453125,-0.0009162708884105086,-0.0004581354442052543,-0.0004581354442052543
1772557015168152600,4.213152587890625,0.00030542362947016954,0.00015271181473508477,-0.0004581354442052543
1772557015186925800,4.23192578125,-0.00030542362947016954,0.00015271181473508477,-0.0004581354442052543
1772557015205698800,4.25069873046875,0.00030542362947016954,0.00015271181473508477,-0.0004581354442052543
1772557015224472000,4.26947216796875,0.0009162708884105086,-0.0009162708884105086,0.00015271181473508477
1772557015243245000,4.2882451171875,0.00030542362947016954,-0.0009162708884105086,0.001985253533348441
1772557015262018300,4.307018310546875,-0.00030542362947016954,0.0007635590736754239,-0.0004581354442052543
1772557015280791600,4.32579150390625,-0.00030542362947016954,-0.0009162708884105086,-0.0004581354442052543
1772557015299564800,4.344564697265625,0.00030542362947016954,0.0007635590736754239,0.00015271181473508477
1772557015318337800,4.363337890625,0.0009162708884105086,0.00015271181473508477,0.00015271181473508477
1772557015337111000,4.382111083984375,0.00030542362947016954,0.00015271181473508477,0.00015271181473508477
1772557015355884300,4.40088427734375,0.0015271181473508477,-0.0004581354442052543,-0.0004581354442052543
1772557015374657300,4.4196572265625,0.00030542362947016954,0.00015271181473508477,0.00015271181473508477
1772557015393430500,4.438430419921875,-0.00030542362947016954,0.00030542362947016954,0.0007635590736754239
1772557015412203800,4.457203857421875,0.00030542362947016954,-0.0004581354442052543,-0.0004581354442052543
1772557015430977000,4.47597705078125,-0.0009162708884105086,-0.0004581354442052543,0.00015271181473508477
1772557015449750000,4.49475,0.00030542362947016954,0.00015271181473508477,0.00015271181473508477
1772557015468523300,4.513523193359375,0.00030542362947016954,0.00015271181473508477,0.00015271181473508477
1772557015487296300,4.532296142578125,-0.00030542362947016954,-0.00030542362947016954,0.0007635590736754239
1772557015506069500,4.551069580078125,0.00030542362947016954,-0.0015271181473508477,0.00015271181473508477
1772557015524842800,4.5698427734375,0.00030542362947016954,0.00015271181473508477,-0.0004581354442052543
1772557015543616000,4.588615966796875,-0.00030542362947016954,-0.0004581354442052543,0.00015271181473508477
1772557015562389000,4.607388916015625,-0.0009162708884105086,-0.0015271181473508477,0.00015271181473508477
1772557015581162200,4.626162353515625,-0.00030542362947016954,0.00015271181473508477,0.00015271181473508477
1772557015599935500,4.644935546875,-0.00030542362947016954,0.0007635590736754239,-0.0006108472589403391
1772557015618708500,4.66370849609375,0.00030542362947016954,0.00015271181473508477,-0.0004581354442052543
1772557015637481700,4.682481689453125,-0.00030542362947016954,-0.0004581354442052543,-0.0010689827613532543
1772557015656255000,4.7012548828125,0.00030542362947016954,0.0007635590736754239,0.00030542362947016954
1772557015675028200,4.7200283203125,0.00030542362947016954,0.00015271181473508477,0.00030542362947016954
1772557015693801200,4.73880126953125,0.0009162708884105086,0.00015271181473508477,-0.00030542362947016954
1772557015712574500,4.757574462890625,-0.0015271181473508477,0.00015271181473508477,0.00030542362947016954
1772557015731347700,4.77634765625,-0.00030542362947016954,-0.0004581354442052543,0.0009162708884105086
1772557015750120700,4.79512060546875,0.00030542362947016954,0.0007635590736754239,-0.00030542362947016954
1772557015768894000,4.81389404296875,-0.00030542362947016954,-0.0004581354442052543,-0.0009162708884105086
1772557015787667200,4.832667236328125,-0.00030542362947016954,0.00015271181473508477,-0.00030542362947016954
1772557015806440200,4.851440185546875,0.0009162708884105086,-0.0004581354442052543,-0.00030542362947016954
1772557015825213400,4.87021337890625,-0.00030542362947016954,0.00030542362947016954,0.0009162708884105086
1772557015843986700,4.888986572265625,0.0009162708884105086,0.0007635590736754239,-0.00030542362947016954
1772557015862760000,4.907760009765625,-0.00030542362947016954,0.0007635590736754239,0.00030542362947016954
1772557015881533000,4.926532958984375,-0.00030542362947016954,0.0007635590736754239,0.0009162708884105086
1772557015900306200,4.94530615234375,-0.00030542362947016954,0.001374406274408102,-0.00030542362947016954
1772557015919079400,4.964079345703125,-0.00030542362947016954,-0.00030542362947016954,0.0009162708884105086
1772557015937852400,4.982852294921875,-0.00030542362947016954,-0.00030542362947016954,-0.00030542362947016954
1772557015956625700,5.001625732421875,-0.0009162708884105086,0.00030542362947016954,-0.00030542362947016954
1772557015975399000,5.02039892578125,0.00030542362947016954,0.0009162708884105086,0.0009162708884105086
1772557015994172000,5.039171875,-0.00030542362947016954,0.00030542362947016954,-0.00030542362947016954
1772557016012945200,5.057945068359375,-0.00030542362947016954,0.00030542362947016954,0.00030542362947016954
1772557016031718400,5.076718505859375,0.00030542362947016954,-0.00030542362947016954,0.00030542362947016954
1772557016050491600,5.09549169921875,0.00030542362947016954,0.0007635590736754239,-0.00030542362947016954
1772557016069264600,5.1142646484375,0.00030542362947016954,-0.0009162708884105086,0.00030542362947016954
1772557016088038000,5.133037841796875,-0.00030542362947016954,-0.00030542362947016954,0.0009162708884105086
1772557016106811100,5.15181103515625,0.00030542362947016954,0.00015271181473508477,-0.00030542362947016954
1772557016125584100,5.170584228515625,-0.00030542362947016954,-0.00030542362947016954,0.00030542362947016954
1772557016144357400,5.189357421875,0.0009162708884105086,0.00015271181473508477,0.00030542362947016954
1772557016163130600,5.208130615234375,-0.00030542362947016954,0.00015271181473508477,0.00030542362947016954
1772557016181903600,5.226903564453125,-0.00030542362947016954,0.00015271181473508477,0.00030542362947016954
1772557016200676900,5.2456767578125,-0.00030542362947016954,-0.00030542362947016954,0.00030542362947016954
1772557016219450000,5.2644501953125,0.0009162708884105086,0.0009162708884105086,0.0009162708884105086
1772557016238223400,5.283223388671875,0.00030542362947016954,0.0007635590736754239,-0.00030542362947016954
1772557016256996400,5.301996337890625,-0.00030542362947016954,-0.00030542362947016954,0.0009162708884105086
1772557016275769600,5.32076953125,0.00030542362947016954,0.00030542362947016954,0.0009162708884105086
1772557016294542800,5.33954296875,0.0009162708884105086,0.0007635590736754239,0.00030542362947016954
1772557016313315800,5.35831591796875,-0.00030542362947016954,0.0007635590736754239,0.00030542362947016954
1772557016332089000,5.377089111328125,0.00030542362947016954,0.00030542362947016954,0.00030542362947016954
1772557016350862300,5.3958623046875,0.00030542362947016954,-0.0009162708884105086,0.0009162708884105086
1772557016369635300,5.41463525390625,-0.00030542362947016954,0.0007635590736754239,-0.00030542362947016954
1772557016388408600,5.43340869140625,0.00030542362947016954,-0.00030542362947016954,-0.00030542362947016954
1772557016407181800,5.452181884765625,0.00030542362947016954,0.0009162708884105086,0.0009162708884105086
1772557016425955000,5.470955078125,0.00030542362947016954,0.00030542362947016954,0.0009162708884105086
1772557016444728000,5.48972802734375,0.0009162708884105086,0.0009162708884105086,0.00030542362947016954
1772557016463501300,5.508501220703125,-0.00030542362947016954,-0.00030542362947016954,0.00030542362947016954
1772557016482274600,5.527274658203125,-0.00030542362947016954,0.00030542362947016954,0.0009162708884105086
1772557016501047600,5.546047607421875,0.0009162708884105086,0.00015271181473508477,0.00030542362947016954
1772557016519820800,5.56482080078125,0.0009162708884105086,0.0007635590736754239,0.00030542362947016954
1772557016538594000,5.583593994140625,-0.00030542362947016954,0.0009162708884105086,0.0009162708884105086
1772557016557367000,5.602366943359375,0.00030542362947016954,0.00015271181473508477,0.00030542362947016954
1772557016576140300,5.621140380859375,0.00030542362947016954,-0.0004581354442052543,0.00030542362947016954
1772557016594913500,5.63991357421875,-0.00030542362947016954,0.00030542362947016954,0.0009162708884105086
1772557016613686800,5.658686767578125,0.00030542362947016954,0.0007635590736754239,-0.00030542362947016954
1772557016632459800,5.677459716796875,0.00030542362947016954,-0.00030542362947016954,0.0009162708884105086
1772557016651233000,5.69623291015625,0.00030542362947016954,-0.0015271181473508477,0.00030542362947016954
1772557016670006300,5.71500634765625,0.00030542362947016954,0.0007635590736754239,-0.0009162708884105086
1772557016688779300,5.733779296875,-0.00030542362947016954,-0.0004581354442052543,-0.00030542362947016954
1772557016707552500,5.752552490234375,-0.00030542362947016954,0.0009162708884105086,0.0009162708884105086
1772557016726325800,5.77132568359375,-0.00030542362947016954,-0.0004581354442052543,-0.00030542362947016954
1772557016745098800,5.7900986328125,0.0015271181473508477,0.0007635590736754239,0.00030542362947016954
1772557016763872000,5.8088720703125,0.0009162708884105086,0.00030542362947016954,0.0009162708884105086
1772557016782645200,5.827645263671875,0.0009162708884105086,-0.00030542362947016954,0.0009162708884105086
1772557016801418500,5.84641845703125,-0.00030542362947016954,-0.00030542362947016954,0.00030542362947016954
1772557016820191500,5.86519140625,-0.00030542362947016954,-0.00030542362947016954,0.00030542362947016954
1772557016838964700,5.88396484375,-0.00030542362947016954,0.0007635590736754239,0.00030542362947016954
1772557016857738000,5.902738037109375,0.00030542362947016954,0.0007635590736754239,-0.00030542362947016954
1772557016876511200,5.92151123046875,-0.0009162708884105086,-0.0004581354442052543,-0.00030542362947016954
1772557016895284200,5.9402841796875,-0.00030542362947016954,-0.0004581354442052543,-0.0009162708884105086
1772557016914057500,5.959057373046875,-0.00030542362947016954,0.0009162708884105086,0.0009162708884105086
1772557016932830700,5.977830810546875,0.00030542362947016954,0.00015271181473508477,0.00030542362947016954
1772557016951603700,5.996603759765625,-0.00030542362947016954,-0.00030542362947016954,0.0015271181473508477
1772557016970377000,6.015376953125,0.00030542362947016954,0.00015271181473508477,0.00030542362947016954
1772557016989150200,6.034150146484375,-0.00030542362947016954,0.00015271181473508477,-0.0009162708884105086
1772557017007923200,6.052923095703125,-0.00030542362947016954,-0.0004581354442052543,0.00030542362947016954
1772557017026696400,6.071696533203125,-0.00030542362947016954,0.00030542362947016954,0.0009162708884105086
1772557017045469700,6.0904697265625,0.00030542362947016954,0.00015271181473508477,-0.00030542362947016954
1772557017064243000,6.109242919921875,-0.00030542362947016954,0.00015271181473508477,0.00030542362947016954
1772557017083016000,6.128015869140625,-0.0009162708884105086,0.00015271181473508477,0.00030542362947016954
1772557017101789200,6.1467890625,-0.00030542362947016954,-0.0009162708884105086,0.00030542362947016954
1772557017120562400,6.1655625,0.0009162708884105086,-0.0009162708884105086,-0.00030542362947016954
1772557017139335400,6.18433544921875,-0.00030542362947016954,-0.0009162708884105086,0.00030542362947016954
1772557017158108700,6.203108642578125,0.00030542362947016954,0.00030542362947016954,0.0009162708884105086
1772557017176882000,6.2218818359375,-0.00030542362947016954,0.00015271181473508477,0.00030542362947016954
1772557017195655000,6.240655029296875,-0.00030542362947016954,0.00030542362947016954,0.0009162708884105086
1772557017214428200,6.25942822265625,-0.0009162708884105086,0.00030542362947016954,0.0009162708884105086
1772557017233201400,6.278201416015625,-0.00030542362947016954,-0.00030542362947016954,0.00030542362947016954
1772557017251974700,6.296974609375,-0.00030542362947016954,-0.00030542362947016954,0.0009162708884105086
1772557017270747600,6.31574755859375,-0.00030542362947016954,0.0009162708884105086,0.0009162708884105086
1772557017289521000,6.33452099609375,-0.00030542362947016954,0.0015271181473508477,0.0009162708884105086
1772557017308294100,6.353294189453125,-0.00030542362947016954,0.00015271181473508477,0.00030542362947016954
1772557017327067100,6.372067138671875,-0.00030542362947016954,-0.0009162708884105086,0.0009162708884105086
1772557017345840400,6.39084033203125,0.00030542362947016954,0.0007635590736754239,-0.0009162708884105086
1772557017364613600,6.409613525390625,0.00030542362947016954,0.0015271181473508477,0.0009162708884105086
1772557017383386600,6.42838671875,-0.00030542362947016954,0.0009162708884105086,0.0009162708884105086
1772557017402159900,6.447159912109375,0.0009162708884105086,0,-0.0006108472589403391
1772557017420933000,6.46593310546875,-0.00030542362947016954,-0.0010689827613532543,-0.0006108472589403391
1772557017439706400,6.484706298828125,-0.00030542362947016954,0.0006108472589403391,0
1772557017458479400,6.503479248046875,-0.00030542362947016954,0,-0.0006108472589403391
1772557017477252600,6.522252685546875,0.0009162708884105086,-0.0010689827613532543,0
1772557017496025900,6.54102587890625,0.00030542362947016954,0,-0.0006108472589403391
1772557017514798800,6.559798828125,-0.00030542362947016954,-0.0006108472589403391,-0.0006108472589403391
1772557017533572000,6.578572021484375,-0.0009162708884105086,0.00015271181473508477,0.0006108472589403391
1772557017552345300,6.597345458984375,-0.00030542362947016954,-0.0010689827613532543,-0.0006108472589403391
1772557017571118600,6.61611865234375,0.00030542362947016954,-0.0004581354442052543,0.0006108472589403391
1772557017589891600,6.6348916015625,-0.00030542362947016954,0,-0.0006108472589403391
1772557017608664800,6.653664794921875,-0.00030542362947016954,0,-0.0012216945178806782
1772557017627438000,6.67243798828125,-0.00030542362947016954,0,0
1772557017646211000,6.691211181640625,-0.0009162708884105086,-0.0012216945178806782,-0.0006108472589403391
1772557017664984300,6.709984375,-0.00030542362947016954,0.00015271181473508477,0.0006108472589403391
1772557017683757600,6.728757568359375,-0.00030542362947016954,0,-0.0006108472589403391
1772557017702530800,6.74753076171875,-0.00030542362947016954,-0.0010689827613532543,0.0006108472589403391
1772557017721303800,6.7663037109375,0.00030542362947016954,0.0006108472589403391,-0.0012216945178806782
1772557017740077000,6.7850771484375,-0.00030542362947016954,0,0
1772557017758850300,6.803850341796875,-0.00030542362947016954,-0.0004581354442052543,0
1772557017777623300,6.822623291015625,0.00030542362947016954,-0.0004581354442052543,0
1772557017796396500,6.841396484375,0.00030542362947016954,-0.0010689827613532543,0
1772557017815169800,6.860169677734375,0.00030542362947016954,0.0006108472589403391,0
1772557017833942800,6.87894287109375,0.0009162708884105086,0.0007635590736754239,0.0006108472589403391
1772557017852716000,6.897716064453125,0.00030542362947016954,0,0
1772557017871489300,6.9164892578125,0.00030542362947016954,0,0
1772557017890262500,6.935262451171875,0.00030542362947016954,0.0007635590736754239,0.0006108472589403391
1772557017909035500,6.954035400390625,0.0009162708884105086,0.0012216945178806782,-0.0006108472589403391
1772557017927808800,6.972808837890625,-0.0009162708884105086,-0.0006108472589403391,-0.0006108472589403391
1772557017946582000,6.99158203125,-0.0009162708884105086,0,-0.0006108472589403391
1772557017965355000,7.01035498046875,-0.00030542362947016954,-0.0010689827613532543,-0.0006108472589403391
1772557017984128300,7.029128173828125,-0.00030542362947016954,0,0
1772557018002901500,7.047901611328125,0.0009162708884105086,-0.0004581354442052543,0
1772557018021674500,7.066674560546875,-0.00030542362947016954,0,-0.0012216945178806782
1772557018040447700,7.08544775390625,-0.00030542362947016954,0.00015271181473508477,0.0006108472589403391
1772557018059221000,7.104220947265625,-0.00030542362947016954,-0.0006108472589403391,-0.0012216945178806782
1772557018077994200,7.122994140625,-0.00030542362947016954,0,0
1772557018096767200,7.141767333984375,0.00030542362947016954,-0.0006108472589403391,-0.0012216945178806782
1772557018115540500,7.16054052734375,0.00030542362947016954,-0.0006108472589403391,-0.0006108472589403391
1772557018134313700,7.179313720703125,0.00030542362947016954,0.0006108472589403391,-0.0006108472589403391
1772557018153086700,7.198086669921875,-0.00030542362947016954,0.00015271181473508477,0.0006108472589403391
1772557018171860000,7.21685986328125,-0.00030542362947016954,0,-0.0006108472589403391
1772557018190633200,7.23563330078125,-0.00030542362947016954,0,0
1772557018209406200,7.25440625,0.00030542362947016954,0.0006108472589403391,0
1772557018228179500,7.273179443359375,-0.0009162708884105086,0,0
1772557018246952700,7.29195263671875,-0.00030542362947016954,-0.0006108472589403391,-0.0006108472589403391
1772557018265726000,7.310725830078125,0.00030542362947016954,0.0006108472589403391,-0.0006108472589403391
1772557018284499000,7.3294990234375,-0.00030542362947016954,-0.0006108472589403391,-0.0006108472589403391
1772557018303272200,7.348272216796875,-0.00030542362947016954,-0.0006108472589403391,0
1772557018322045400,7.36704541015625,-0.00030542362947016954,-0.0006108472589403391,0
1772557018340818400,7.385818359375,0.00030542362947016954,-0.0010689827613532543,0.0006108472589403391
1772557018359591700,7.404591796875,-0.00030542362947016954,-0.0006108472589403391,-0.0006108472589403391
1772557018378365000,7.423364990234375,0.0009162708884105086,-0.0006108472589403391,0
1772557018397138000,7.442137939453125,-0.00030542362947016954,-0.0010689827613532543,0.0006108472589403391
1772557018415911200,7.4609111328125,0.00030542362947016954,0,0
1772557018434684400,7.479684326171875,-0.00030542362947016954,0.0006108472589403391,-0.0006108472589403391
1772557018453457700,7.498457763671875,0.0009162708884105086,0.0007635590736754239,0.0006108472589403391
1772557018472230700,7.517230712890625,-0.00030542362947016954,0.00015271181473508477,0.0012216945178806782
1772557018491004000,7.53600390625,-0.00030542362947016954,0.0006108472589403391,0
1772557018509777200,7.554777099609375,-0.00030542362947016954,-0.0004581354442052543,0.0006108472589403391
1772557018528550100,7.573550048828125,0.00030542362947016954,0.0006108472589403391,-0.0006108472589403391
1772557018547323400,7.592323486328125,0.00030542362947016954,0,-0.0006108472589403391
1772557018566096600,7.6110966796875,-0.00030542362947016954,0.0006108472589403391,0
1772557018584870000,7.629869873046875,-0.00030542362947016954,-0.0006108472589403391,-0.0006108472589403391
1772557018603643000,7.648642822265625,0.0009162708884105086,-0.0006108472589403391,0
1772557018622416100,7.667416015625,0.00030542362947016954,0.0006108472589403391,0
1772557018641189400,7.686189453125,-0.0009162708884105086,-0.0004581354442052543,0.0006108472589403391
1772557018659962400,7.70496240234375,0.0009162708884105086,0,0
1772557018678735600,7.723735595703125,-0.00030542362947016954,-0.0006108472589403391,0
1772557018697508900,7.7425087890625,0.00030542362947016954,0,-0.0006108472589403391
1772557018716281900,7.76128173828125,0.0009162708884105086,0.0006108472589403391,-0.0012216945178806782
1772557018735055000,7.78005517578125,-0.00030542362947016954,0,-0.0006108472589403391
1772557018753828400,7.798828369140625,0.00030542362947016954,0.00015271181473508477,0.0006108472589403391
1772557018772601600,7.8176015625,-0.00030542362947016954,-0.0004581354442052543,0
1772557018791374600,7.83637451171875,-0.00030542362947016954,0.00015271181473508477,0.0006108472589403391
1772557018810147800,7.85514794921875,0.00030542362947016954,0,0.0006108472589403391
1772557018828921000,7.873921142578125,-0.0009162708884105086,0.0006108472589403391,0
1772557018847694000,7.892694091796875,-0.00030542362947016954,0.0006108472589403391,0
1772557018866467300,7.91146728515625,-0.00030542362947016954,0.00015271181473508477,0.0006108472589403391
1772557018885240600,7.930240478515625,-0.00030542362947016954,-0.0006108472589403391,0
1772557018904013600,7.949013671875,0.00030542362947016954,0.00015271181473508477,0.0006108472589403391
1772557018922786800,7.967786865234375,-0.00030542362947016954,-0.0010689827613532543,0.0012216945178806782
1772557018941560000,7.98656005859375,-0.00030542362947016954,-0.0006108472589403391,-0.0012216945178806782
1772557018960333300,8.005333251953125,-0.00030542362947016954,0.0012216945178806782,-0.0006108472589403391
1772557018979106300,8.024106201171875,-0.00030542362947016954,0.0006108472589403391,-0.0006108472589403391
1772557018997879600,8.042879638671875,-0.00030542362947016954,0.0006108472589403391,0
1772557019016652800,8.06165283203125,-0.0009162708884105086,-0.0006108472589403391,-0.0006108472589403391
1772557019035425800,8.08042578125,-0.00030542362947016954,0.00015271181473508477,0.0012216945178806782
1772557019054199000,8.099198974609376,0.0009162708884105086,0.0006108472589403391,0
1772557019072972300,8.11797216796875,-0.00030542362947016954,-0.0006108472589403391,0
1772557019091745300,8.136745361328124,-0.00030542362947016954,0,-0.0006108472589403391
1772557019110518500,8.1555185546875,-0.00030542362947016954,-0.0004581354442052543,0.0006108472589403391
1772557019129291800,8.174291748046874,-0.00030542362947016954,-0.0016798300202935934,-0.0006108472589403391
1772557019148064800,8.193064697265624,-0.00030542362947016954,-0.00030542362947016954,0.00015271181473508477
1772557019166838000,8.211838134765625,0.00030542362947016954,0.00030542362947016954,0.001374406274408102
1772557019185611300,8.230611328125,-0.0009162708884105086,-0.00030542362947016954,0.00015271181473508477
1772557019204384500,8.249384521484375,0.00030542362947016954,0.00015271181473508477,-0.0018325417768210173
1772557019223157500,8.268157470703125,0.00030542362947016954,0.00015271181473508477,-0.0010689827613532543
1772557019241930800,8.2869306640625,0.00030542362947016954,0.00015271181473508477,0.00015271181473508477
1772557019260704000,8.3057041015625,-0.00030542362947016954,-0.00030542362947016954,0.0007635590736754239
1772557019279477000,8.32447705078125,-0.00030542362947016954,0.00015271181473508477,-0.0004581354442052543
1772557019298250200,8.343250244140625,-0.00030542362947016954,0.00015271181473508477,-0.0010689827613532543
1772557019317023500,8.3620234375,0.0009162708884105086,0.00015271181473508477,0.00015271181473508477
1772557019335796500,8.38079638671875,0.00030542362947016954,0.001374406274408102,0
1772557019354569700,8.39956982421875,-0.00030542362947016954,0.00015271181473508477,-0.0004581354442052543
1772557019373343000,8.418343017578126,0.00030542362947016954,0.00015271181473508477,0.00015271181473508477
1772557019392116000,8.437115966796876,-0.0009162708884105086,-0.0004581354442052543,-0.0004581354442052543
1772557019410889200,8.45588916015625,-0.00030542362947016954,-0.00030542362947016954,0.0007635590736754239
1772557019429662500,8.474662353515624,0.00030542362947016954,0.0007635590736754239,-0.0004581354442052543
1772557019448435700,8.493435791015624,-0.00030542362947016954,-0.0004581354442052543,-0.0004581354442052543
1772557019467208700,8.512208740234374,0.00030542362947016954,0.0007635590736754239,-0.0004581354442052543
1772557019485982000,8.53098193359375,0.00030542362947016954,-0.0004581354442052543,-0.0010689827613532543
1772557019504755200,8.549755126953125,0.0009162708884105086,-0.00030542362947016954,0.0007635590736754239
1772557019523528200,8.568528076171875,-0.00030542362947016954,0.00015271181473508477,-0.0010689827613532543
1772557019542301400,8.587301513671875,-0.00030542362947016954,0.00015271181473508477,0.00015271181473508477
1772557019561074400,8.606074462890625,0.00030542362947016954,0.0007635590736754239,-0.0006108472589403391
1772557019579847700,8.62484765625,0.0009162708884105086,0.0007635590736754239,0
1772557019598621000,8.643620849609375,-0.0009162708884105086,0.0007635590736754239,0
1772557019617394000,8.662393798828125,0.0009162708884105086,-0.0004581354442052543,-0.0010689827613532543
1772557019636167200,8.681167236328125,-0.0009162708884105086,0.0007635590736754239,0
1772557019654940400,8.6999404296875,0.0009162708884105086,0.00015271181473508477,0.00015271181473508477
1772557019673713400,8.71871337890625,0.0009162708884105086,0.00015271181473508477,-0.0006108472589403391
1772557019692486700,8.737486572265626,-0.00030542362947016954,0.00015271181473508477,-0.0004581354442052543
1772557019711260000,8.756260009765626,-0.00030542362947016954,0.00030542362947016954,0.0007635590736754239
1772557019730033000,8.775032958984376,-0.00030542362947016954,0.00015271181473508477,-0.0004581354442052543
1772557019748806100,8.79380615234375,-0.00030542362947016954,0.0009162708884105086,0.0007635590736754239
1772557019767579400,8.812579345703124,0.00030542362947016954,-0.0010689827613532543,-0.0010689827613532543
1772557019786352400,8.831352294921874,0.00030542362947016954,-0.0004581354442052543,0.00015271181473508477
1772557019805125600,8.850125732421875,0.0009162708884105086,0.0009162708884105086,0.0007635590736754239
1772557019823899000,8.86889892578125,0.0009162708884105086,0.00015271181473508477,0.00015271181473508477
1772557019842671900,8.887671875,-0.0009162708884105086,0.00030542362947016954,0.00015271181473508477
1772557019861445000,8.906445068359375,-0.00030542362947016954,0.0015271181473508477,0.0007635590736754239
1772557019880218400,8.92521826171875,-0.0009162708884105086,0.00015271181473508477,-0.0004581354442052543
1772557019898991400,8.943991455078125,0.00030542362947016954,-0.00030542362947016954,0.001374406274408102
1772557019917764600,8.9627646484375,0.0009162708884105086,-0.0004581354442052543,0.00015271181473508477
1772557019936537900,8.981537841796875,-0.00030542362947016954,0.0007635590736754239,-0.0006108472589403391
1772557019955310800,9.000310791015625,0.0009162708884105086,-0.00030542362947016954,0.0007635590736754239
1772557019974084000,9.019083984375,0.00030542362947016954,0.00030542362947016954,0.0007635590736754239
1772557019992857000,9.037857177734375,-0.0009162708884105086,-0.00030542362947016954,0.0007635590736754239
1772557020011630300,9.05663037109375,0.00030542362947016954,0.00015271181473508477,-0.0012216945178806782
1772557020030403600,9.075403564453126,-0.00030542362947016954,0.0007635590736754239,-0.0018325417768210173
1772557020049176600,9.094176513671876,-0.00030542362947016954,-0.0009162708884105086,0.001374406274408102
1772557020067949800,9.11294970703125,0.00030542362947016954,0.00030542362947016954,0.0007635590736754239
1772557020086722800,9.131722900390624,-0.00030542362947016954,0.00015271181473508477,0.00015271181473508477
1772557020105496000,9.15049609375,-0.00030542362947016954,-0.0004581354442052543,0.00015271181473508477
1772557020124269300,9.169269287109374,0.0009162708884105086,0.0009162708884105086,0.0007635590736754239
1772557020143042300,9.188042236328124,0.00030542362947016954,-0.0004581354442052543,-0.0004581354442052543
1772557020161815600,9.206815673828125,0.0009162708884105086,0.00015271181473508477,0.00015271181473508477
1772557020180588500,9.225588623046875,-0.00030542362947016954,0.00030542362947016954,0.0007635590736754239
1772557020199361800,9.24436181640625,0.00030542362947016954,0.0007635590736754239,0
1772557020218135000,9.263135009765625,-0.00030542362947016954,-0.0009162708884105086,0.0007635590736754239
1772557020236908000,9.281907958984375,-0.00030542362947016954,-0.0009162708884105086,0.001374406274408102
1772557020255681300,9.300681396484375,0.00030542362947016954,-0.0004581354442052543,-0.0004581354442052543
1772557020274454300,9.319454345703125,0.0009162708884105086,-0.0010689827613532543,-0.0004581354442052543
1772557020293227500,9.3382275390625,-0.00030542362947016954,-0.0010689827613532543,0.00015271181473508477
1772557020312000800,9.357000732421875,-0.00030542362947016954,-0.0009162708884105086,0.001374406274408102
1772557020330773800,9.375773681640625,0.0009162708884105086,-0.0010689827613532543,0.00015271181473508477
1772557020349547000,9.394547119140626,-0.00030542362947016954,0.0007635590736754239,0
1772557020368320000,9.413320068359376,0.00030542362947016954,-0.0004581354442052543,0.00015271181473508477
1772557020387093200,9.43209326171875,-0.00030542362947016954,0.00030542362947016954,0.0007635590736754239
1772557020405866200,9.4508662109375,0.0009162708884105086,-0.00030542362947016954,0.001374406274408102
1772557020424639500,9.469639404296874,0.00030542362947016954,0.0007635590736754239,0
1772557020443412500,9.48841259765625,0.0009162708884105086,0.00015271181473508477,-0.0004581354442052543
1772557020462185700,9.507185791015624,-0.00030542362947016954,0.00015271181473508477,0.00015271181473508477
1772557020480959000,9.525958984375,-0.0009162708884105086,-0.00030542362947016954,0.001374406274408102
1772557020499732000,9.54473193359375,0.00030542362947016954,0.00015271181473508477,-0.0004581354442052543
1772557020518505200,9.563505126953125,0.0009162708884105086,0.00015271181473508477,0.0007635590736754239
1772557020537278200,9.5822783203125,-0.00030542362947016954,0.0007635590736754239,0
1772557020556051500,9.601051513671875,-0.00030542362947016954,0.00015271181473508477,-0.0004581354442052543
1772557020574824400,9.619824462890625,0.00030542362947016954,0.00015271181473508477,-0.0012216945178806782
1772557020593597700,9.63859765625,0.0009162708884105086,0.00015271181473508477,-0.0018325417768210173
1772557020612370700,9.65737060546875,0.00030542362947016954,0.0009162708884105086,0.0007635590736754239
1772557020631144000,9.67614404296875,-0.00030542362947016954,0.0009162708884105086,0.0007635590736754239
1772557020649917000,9.6949169921875,0.0009162708884105086,-0.0004581354442052543,-0.0012216945178806782
1772557020668690200,9.713690185546875,0.00030542362947016954,-0.0004581354442052543,-0.0004581354442052543
1772557020687463200,9.732463134765625,-0.00030542362947016954,0.00015271181473508477,-0.0004581354442052543
1772557020706236400,9.751236328125,0.0009162708884105086,0.0010689827613532543,0.015576604753732681
1772557020725009400,9.770009521484376,0.0009162708884105086,0.0022906772792339325,0.01175880990922451
1772557020743782700,9.78878271484375,0.00030542362947016954,0.0009162708884105086,0.001374406274408102
1772557020762555600,9.8075556640625,0.00030542362947016954,-0.0004581354442052543,-0.006108472589403391
1772557020781329000,9.826328857421874,0.0009162708884105086,-0.0022906772792339325,-0.004123218823224306
1772557020800102000,9.845101806640624,-0.00030542362947016954,-0.0029015245381742716,-0.004886778071522713
1772557020818875100,9.863875244140624,0.00030542362947016954,-0.0009162708884105086,0.0007635590736754239
