time,seconds_elapsed,z,y,x
1772558440962498300,0.200498291015625,0.6957550048828125,-0.3683409094810486,0.042759306728839874
1772558440990656800,0.22865673828125,1.064706802368164,-0.9747595191001892,0.17454960942268372
1772558441009429000,0.247428955078125,1.1202938556671143,-1.096470832824707,0.06047387793660164
1772558441028201500,0.266201416015625,1.1060916185379028,-1.040272831916809,0.029626091942191124
1772558441046973700,0.2849736328125,1.5659070014953613,-1.7187714576721191,-0.15469707548618317
1772558441065746200,0.30374609375,1.5208569765090942,-0.9245173335075378,-0.5209000110626221
1772558441084518400,0.322518310546875,1.862778663635254,-1.4431266784667969,-0.7230904698371887
1772558441103290600,0.34129052734375,2.0411460399627686,-1.9290556907653809,-0.7389724850654602
1772558441122063000,0.36006298828125,2.027860164642334,-2.033205032348633,-0.5581616759300232
1772558441140835300,0.37883544921875,1.6104987859725952,-1.6437900066375732,0.08612946420907974
1772558441159607800,0.39760791015625,1.4806936979293823,-1.6750959157943726,0.21975229680538177
1772558441178380000,0.416380126953125,1.520246148109436,-1.5558279752731323,0.3674246370792389
1772558441197152500,0.435152587890625,1.265828251838684,-1.413347840309143,0.7207997441291809
1772558441215924700,0.4539248046875,1.042563557624817,-1.3024790287017822,0.9955283403396606
1772558441234697200,0.472697265625,0.9413156509399414,-1.2994248867034912,1.1106730699539185
1772558441253469400,0.491469482421875,0.9327637553215027,-1.2158914804458618,1.0787562131881714
1772558441272242000,0.510241943359375,0.8716790676116943,-1.0708152055740356,1.0141592025756836
1772558441291014100,0.52901416015625,0.9100096821784973,-0.9857547879219055,0.892447829246521
1772558441309786400,0.547786376953125,0.7941014170646667,-1.2751436233520508,0.7212579250335693
1772558441328558800,0.566558837890625,0.682163655757904,-0.8770239353179932,0.5392253994941711
1772558441347331000,0.5853310546875,0.8895463347434998,-0.7522584199905396,0.38544461131095886
1772558441366103600,0.604103515625,0.7655443549156189,-0.6572716236114502,0.3892624080181122
1772558441384875800,0.622875732421875,0.6502469182014465,-0.5421269536018372,0.32573428750038147
1772558441403648300,0.641648193359375,0.4486673176288605,-0.349251925945282,0.16553960740566254
1772558441422420500,0.66042041015625,0.3130592107772827,-0.16630317270755768,0.03955236077308655
1772558441441193000,0.67919287109375,0.2238755226135254,-0.15484978258609772,-0.004581354558467865
1772558441459965200,0.697965087890625,0.02870982140302658,-0.2710634768009186,-0.011300674639642239
1772558441478737400,0.7167373046875,-0.1322484314441681,-0.41262730956077576,0.0397050715982914
1772558441497510000,0.735510009765625,-0.23349636793136597,-0.5291464328765869,0.12781979143619537
1772558441516282000,0.7542822265625,-0.2742704153060913,-0.5074613690376282,0.15408621728420258
1772558441535054600,0.7730546875,-0.3190149664878845,-0.395218163728714,0.0925433561205864
1772558441553826800,0.791826904296875,-0.36666107177734375,-0.28541839122772217,-0.0030542362947016954
1772558441572599300,0.810599365234375,-0.37704548239707947,-0.21028417348861694,-0.09422318637371063
1772558441591371500,0.82937158203125,-0.3161134421825409,-0.12659808993339539,-0.1910424828529358
1772558441610143700,0.848143798828125,-0.23823043704032898,-0.02886253222823143,-0.2782409191131592
1772558441628916200,0.866916259765625,-0.20096874237060547,0.03008422814309597,-0.3252761662006378
1772558441647688400,0.8856884765625,-0.20463383197784424,0.0859767496585846,-0.3298575282096863
1772558441666461000,0.9044609375,-0.2107423096895218,0.14278554916381836,-0.3155026137828827
1772558441685233200,0.923233154296875,-0.1656923145055771,0.21959958970546722,-0.3101576864719391
1772558441704005400,0.94200537109375,-0.09620844572782516,0.27747735381126404,-0.305576354265213
1772558441722777900,0.96077783203125,-0.027793550863862038,0.3020639717578888,-0.3246653079986572
1772558441741550000,0.979550048828125,0.045355409383773804,0.2411319613456726,-0.3301629424095154
1772558441760322600,0.998322509765625,0.07421794533729553,0.11545012891292572,-0.30068957805633545
1772558441779094800,1.0170947265625,0.08704573661088943,0.0021379655227065086,-0.23853585124015808
1772558441797867300,1.0358671875,0.10002623498439789,-0.06887302547693253,-0.15118469297885895
1772558441816639500,1.054639404296875,0.07925742864608765,-0.07543963938951492,-0.06749862432479858
1772558441835411700,1.07341162109375,0.062153708189725876,-0.05329642444849014,-0.01588202826678753
1772558441854184200,1.09218408203125,0.06765133142471313,-0.025350160896778107,-0.016340164467692375
1772558441872956400,1.110956298828125,0.07559234648942947,-0.0068720318377017975,-0.04199574887752533
1772558441891729000,1.12972900390625,0.08231166750192642,0.005650337319821119,-0.05726693198084831
1772558441910501000,1.148501220703125,0.08658760040998459,-0.003970507066696882,-0.045202698558568954
1772558441929273300,1.1672734375,0.09330692142248154,0.04581354558467865,-0.01832541823387146
1772558441948045800,1.1860458984375,0.08231166750192642,0.06490252166986465,0.03023693896830082
1772558441966818000,1.204818115234375,0.07864658534526825,0.057114217430353165,0.04031591862440109
1772558441985590500,1.223590576171875,0.04749337583780289,0.02641914412379265,0.0198525357991457
1772558442004362800,1.24236279296875,0.04077405482530594,0.01954711228609085,-0.023975754156708717
1772558442023135200,1.26113525390625,0.03771981969475746,0.010078979656100273,-0.04489727318286896
1772558442041907500,1.279907470703125,0.012675080448389053,-0.010231691412627697,-0.027182703837752342
1772558442060679700,1.2986796875,-0.009773556143045425,-0.01710372418165207,0.00259610079228878
1772558442079452200,1.3174521484375,-0.04153761267662048,0.03833066672086716,0.0065666078589856625
1772558442098224400,1.336224365234375,-0.051463883370161057,0.12125317752361298,-0.02092151902616024
1772558442116996900,1.354996826171875,-0.06368082761764526,0.17913095653057098,-0.05421269312500954
1772558442135769000,1.37376904296875,-0.06856760382652283,0.18523943424224854,-0.053143709897994995
1772558442154541300,1.392541259765625,-0.051463883370161057,0.21303297579288483,-0.029473381116986275
1772558442173313800,1.411313720703125,-0.009468132629990578,0.2993151545524597,0.0018325417768210173
1772558442192086000,1.4300859375,-0.02107422985136509,0.4187358021736145,0.014507622458040714
1772558442210858500,1.4488583984375,-0.05405998229980469,0.5363239049911499,-0.023059483617544174
1772558442229630700,1.467630615234375,-0.11453386396169662,0.6375718116760254,-0.08490777015686035
1772558442248403000,1.48640283203125,-0.1519482582807541,0.8098307251930237,-0.15622419118881226
1772558442267175400,1.505175537109375,-0.14721418917179108,1.0616525411605835,-0.27289602160453796
1772558442285947600,1.52394775390625,-0.10155335813760757,1.1983295679092407,-0.3602471649646759
1772558442304720100,1.54272021484375,-0.05085303261876106,1.1293038129806519,-0.337340384721756
1772558442323492400,1.561492431640625,-0.04947862774133682,0.9726215600967407,-0.28496024012565613
1772558442342264800,1.580264892578125,-0.05925218388438225,0.8434273600578308,-0.2223484069108963
1772558442361037000,1.599037109375,-0.04321744292974472,0.6901046633720398,-0.2536543309688568
1772558442379809300,1.617809326171875,-0.07360709458589554,0.506239652633667,-0.2286095917224884
1772558442398581800,1.636581787109375,-0.06139015033841133,0.32848310470581055,-0.15484978258609772
1772558442417354000,1.65535400390625,-0.002748812548816204,0.222042977809906,-0.11254860460758209
1772558442436126200,1.674126220703125,0.04978405311703682,0.15652960538864136,-0.0587940476834774
1772558442454898700,1.692898681640625,0.08460234850645065,0.11621369421482086,-0.06169557198882103
1772558442473671000,1.7116708984375,0.08276980370283127,0.10582929104566574,-0.034818295389413834
1772558442492443400,1.730443359375,0.07681404054164886,0.08108997344970703,0.013896775431931019
1772558442511215600,1.749215576171875,0.06826218217611313,0.06749862432479858,0.01038440316915512
1772558442529988000,1.767988037109375,0.024281177669763565,0.0910162404179573,-0.00992626789957285
1772558442548760300,1.78676025390625,-0.02641914412379265,0.1310267299413681,-0.013591351918876171
1772558442567532500,1.805532470703125,-0.03374931216239929,0.14904673397541046,-0.03374931216239929
1772558442586305000,1.824304931640625,-0.01847812905907631,0.1391204595565796,-0.0528382882475853
1772558442605077200,1.8430771484375,-0.006261184345930815,0.11270131915807724,-0.062306419014930725
1772558442623849700,1.861849609375,0.007177455350756645,0.05207473039627075,-0.04749337583780289
1772558442642622000,1.8806220703125,0.030389651656150818,0.01038440316915512,-0.030695075169205666
1772558442661394200,1.899394287109375,0.04993676394224167,0.03436015918850899,-0.008704573847353458
1772558442680166700,1.918166748046875,0.04810422286391258,0.03390202298760414,0.03451287001371384
1772558442698939000,1.93693896484375,0.06520794332027435,-0.029778804630041122,0.09086353331804276
1772558442717711400,1.95571142578125,0.09086353331804276,-0.06887302547693253,0.11377029865980148
1772558442736483600,1.974483642578125,0.09208522737026215,-0.051616594195365906,0.0925433561205864
1772558442755255800,1.993255859375,0.09025268256664276,-0.06368082761764526,0.062306419014930725
1772558442774028300,2.0120283203125,0.07559234648942947,-0.06444438546895981,0.0462716780602932
1772558442792800500,2.030800537109375,0.04993676394224167,-0.013744063675403595,0.02244863659143448
1772558442811573000,2.049572998046875,0.03161134570837021,0.008246437646448612,-0.004581354558467865
1772558442830345200,2.06834521484375,0.03527642786502838,-0.0325276181101799,-0.007635590620338917
1772558442849117400,2.087117431640625,0.052990999072790146,-0.051463883370161057,-0.007788302376866341
1772558442867890000,2.105889892578125,0.07925742864608765,-0.06810946762561798,0.007330167107284069
1772558442886662100,2.124662109375,0.08108997344970703,-0.06658235192298889,0.03390202298760414
1772558442905434600,2.1434345703125,0.06581879407167435,-0.030847785994410515,0.02092151902616024
1772558442924206800,2.162206787109375,0.06704048812389374,-0.0325276181101799,-0.008246437646448612
1772558442942979000,2.18097900390625,0.08964183181524277,-0.04550812020897865,-0.02092151902616024
1772558442961751600,2.19975146484375,0.062153708189725876,0.006413896102458239,-0.006413896102458239
1772558442980523800,2.218523681640625,0.027946261689066887,0.03833066672086716,0.005955760832875967
1772558442999296300,2.237296142578125,0.03405473381280899,0.011453386396169662,0.007024743594229221
1772558443018068500,2.256068359375,0.05665608495473862,-0.011911521665751934,-0.010995250195264816
1772558443036840700,2.2748408203125,0.05482354015111923,-0.04856235533952713,-0.016492875292897224
1772558443055613200,2.29361328125,0.050547610968351364,-0.05894676223397255,-0.023823043331503868
1772558443074385400,2.312385498046875,0.03588727489113808,-0.06933116167783737,-0.024281177669763565
1772558443093158000,2.331157958984375,0.0397050715982914,-0.09804098308086395,0.0035123717971146107
1772558443111930000,2.34993017578125,0.03420744836330414,-0.1044548824429512,0.025961007922887802
1772558443130702600,2.36870263671875,0.023823043331503868,-0.06413896381855011,0.032069481909275055
1772558443149474800,2.387474853515625,0.016340164467692375,-0.010078979656100273,0.02107422985136509
1772558443168247000,2.4062470703125,0.008399149402976036,0.026571854948997498,-0.0068720318377017975
1772558443187019500,2.42501953125,-0.01175880990922451,0.04856235533952713,-0.03573456406593323
1772558443205791700,2.443791748046875,-0.014202198944985867,0.03573456406593323,-0.04169032722711563
1772558443224564000,2.46256396484375,-0.008704573847353458,0.016645587980747223,-0.01588202826678753
1772558443243336400,2.48133642578125,-0.01038440316915512,-0.014507622458040714,0.011300674639642239
1772558443262108700,2.500108642578125,0.0006108472589403391,-0.016034740954637527,-0.0022906772792339325
1772558443280881200,2.518881103515625,0.0022906772792339325,0.01588202826678753,-0.027029991149902344
1772558443299653400,2.5376533203125,-0.0068720318377017975,0.02748812735080719,-0.02229592576622963
1772558443318425900,2.55642578125,0.008399149402976036,0.0022906772792339325,-0.001985253533348441
1772558443337198000,2.575197998046875,0.020005248486995697,-0.02489202655851841,0.014049487188458443
1772558443355970300,2.59397021484375,0.024433890357613564,-0.04474456235766411,0.0261137206107378
1772558443374742800,2.61274267578125,0.017714571207761765,-0.047798797488212585,0.026724567636847496
1772558443393515000,2.631514892578125,0.013896775431931019,-0.019394399598240852,0.009468132629990578
1772558443412287500,2.65028759765625,0.021837789565324783,-0.018783552572131157,0.010078979656100273
1772558443431059700,2.669059814453125,0.037108972668647766,-0.025961007922887802,0.01710372418165207
1772558443449832000,2.68783203125,0.05543438717722893,-0.05238015204668045,0.04107947647571564
1772558443468604400,2.7066044921875,0.05360184609889984,-0.04504998400807381,0.05024218559265137
1772558443487376600,2.725376708984375,0.03649812191724777,-0.01695101149380207,0.04856235533952713
1772558443506149000,2.744149169921875,0.01695101149380207,0.00015271181473508477,0.014660334214568138
1772558443524921300,2.76292138671875,0.02367033064365387,0.03558185324072838,-0.017561858519911766
1772558443543693600,2.781693603515625,0.03771981969475746,0.05635065957903862,-0.04077405482530594
1772558443562466000,2.800466064453125,0.04321744292974472,0.025502873584628105,-0.027793550863862038
1772558443581238300,2.81923828125,0.04993676394224167,-0.05803048983216286,0.03802524134516716
1772558443600010800,2.8380107421875,0.05131116881966591,-0.1169772520661354,0.0794101431965828
1772558443618783000,2.856782958984375,0.07207997888326645,-0.12339114397764206,0.05787777900695801
1772558443637555500,2.875555419921875,0.07620319724082947,-0.059557609260082245,0.014660334214568138
1772558443656327700,2.89432763671875,0.04810422286391258,0.01252236869186163,-0.0065666078589856625
1772558443675100000,2.913099853515625,0.004123218823224306,0.0528382882475853,0.007635590620338917
1772558443693872400,2.931872314453125,-0.04337015375494957,0.07864658534526825,0.01832541823387146
1772558443712644600,2.95064453125,-0.08185353130102158,0.09865183383226395,0.011606098152697086
1772558443731417000,2.9694169921875,-0.09040539711713791,0.07620319724082947,-0.023212196305394173
1772558443750189300,2.988189208984375,-0.06291726976633072,0.04932591691613197,-0.06291726976633072
1772558443768961500,3.00696142578125,-0.03542914241552353,0.014660334214568138,-0.06658235192298889
1772558443787734000,3.025734130859375,-0.024433890357613564,-0.015423892997205257,-0.04504998400807381
1772558443806506200,3.04450634765625,-0.028098974376916885,-0.010995250195264816,-0.02901524491608143
1772558443825278700,3.06327880859375,-0.03420744836330414,0.02748812735080719,-0.025350160896778107
1772558443844051000,3.082051025390625,-0.0068720318377017975,0.04611896723508835,-0.038788799196481705
1772558443862823400,3.100823486328125,0.01817270554602146,0.03497100621461868,-0.0522274412214756
1772558443881595600,3.119595703125,0.009009997360408306,0.023212196305394173,-0.0587940476834774
1772558443900368000,3.138367919921875,-0.02764083817601204,0.054518118500709534,-0.04443913698196411
1772558443919140400,3.157140380859375,-0.06368082761764526,0.10934165865182877,-0.046729814261198044
1772558443937912600,3.17591259765625,-0.0594048947095871,0.1588202863931656,-0.06688777357339859
1772558443956685000,3.19468505859375,-0.0459662564098835,0.1820324808359146,-0.072232685983181
1772558443975457300,3.213457275390625,-0.058183200657367706,0.2101314514875412,-0.059710320085287094
1772558443994229500,3.2322294921875,-0.06490252166986465,0.18753011524677277,-0.028404397889971733
1772558444013002000,3.251001953125,-0.046577103435993195,0.12216944992542267,-0.0004581354442052543
1772558444031774200,3.269774169921875,-0.017714571207761765,0.04337015375494957,0.016340164467692375
1772558444050546700,3.288546630859375,0.014660334214568138,-0.00992626789957285,0.03649812191724777
1772558444069319000,3.30731884765625,0.034665580838918686,-0.024128466844558716,0.05726693198084831
1772558444088091400,3.32609130859375,0.020616095513105392,0.017867282032966614,0.06398624926805496
1772558444106863600,3.344863525390625,0.010842538438737392,0.05360184609889984,0.047798797488212585
1772558444125635800,3.3636357421875,0.011453386396169662,0.06963659077882767,0.025197450071573257
1772558444144408300,3.382408203125,0.008399149402976036,0.07650861889123917,0.0015271181473508477
1772558444163180500,3.4011806640625,0.013896775431931019,0.033596597611904144,0.01847812905907631
1772558444181953000,3.419953125,0.029778804630041122,0.004275931045413017,0.015271181240677834
1772558444200725200,3.438725341796875,0.037108972668647766,-0.005344913341104984,0.015423892997205257
1772558444219497700,3.457497802734375,0.03649812191724777,-0.0024433890357613564,0.01175880990922451
1772558444238270000,3.47627001953125,0.02489202655851841,0.0030542362947016954,0.009620844386518002
1772558444257042400,3.49504248046875,0.011453386396169662,0.014507622458040714,0.008246437646448612
1772558444275814700,3.513814697265625,0.0010689827613532543,0.032069481909275055,-0.00259610079228878
1772558444294587000,3.5325869140625,-0.01175880990922451,0.03298575058579445,-0.016798298805952072
1772558444313359400,3.551359375,-0.011147962883114815,0.021379653364419937,-0.02092151902616024
1772558444332131600,3.570131591796875,0.0035123717971146107,-0.0015271181473508477,-0.011300674639642239
1772558444350904000,3.588904052734375,-0.007941014133393764,0.004734066314995289,0.00030542362947016954
1772558444369676300,3.60767626953125,-0.017714571207761765,0.021226942539215088,0.00015271181473508477
1772558444388448500,3.626448486328125,-0.019088976085186005,0.03237490355968475,-0.019394399598240852
1772558444407221000,3.645220947265625,-0.023212196305394173,0.019088976085186005,-0.016034740954637527
1772558444425993200,3.6639931640625,-0.030542362481355667,0.007177455350756645,-0.0015271181473508477
1772558444444765700,3.682765625,-0.04092676565051079,0.007177455350756645,-0.002748812548816204
1772558444463538000,3.701537841796875,-0.04825693368911743,0.016034740954637527,-0.013438640162348747
1772558444482310400,3.720310302734375,-0.047646086663007736,0.03161134570837021,-0.033443886786699295
1772558444501082600,3.73908251953125,-0.037261683493852615,0.029626091942191124,-0.04214845970273018
1772558444519854800,3.757854736328125,-0.03176405653357506,0.016492875292897224,-0.02764083817601204
1772558444538627300,3.77662744140625,-0.02993151545524597,0.015576604753732681,-0.004734066314995289
1772558444557399600,3.795399658203125,-0.014049487188458443,0.026571854948997498,0.0006108472589403391
1772558444576172000,3.814172119140625,-0.012980503961443901,0.04199574887752533,0.007788302376866341
1772558444594944300,3.8329443359375,-0.008704573847353458,0.03405473381280899,0.006719320081174374
1772558444613716700,3.851716796875,-0.016492875292897224,0.006108472589403391,0.009009997360408306
1772558444632489000,3.870489013671875,-0.02870982140302658,-0.007788302376866341,0.014202198944985867
1772558444651261400,3.889261474609375,-0.02076880633831024,-0.005344913341104984,0.016034740954637527
1772558444670033700,3.90803369140625,0,-0.0004581354442052543,0.01847812905907631
1772558444688806000,3.926805908203125,0.013438640162348747,-0.05619794875383377,0.0325276181101799
1772558444707578400,3.945578369140625,0.014049487188458443,-0.12583453953266144,0.047951508313417435
1772558444726350600,3.9643505859375,0.008551862090826035,-0.14782503247261047,0.08307522535324097
1772558444745123000,3.983123046875,0.00916270911693573,-0.12812520563602448,0.10124793648719788
1772558444763895300,4.001895263671875,0.0036650835536420345,-0.0331384651362896,0.06978929787874222
1772558444782667800,4.020667724609375,0.007788302376866341,0.03558185324072838,0.023364907130599022
1772558444801440000,4.03943994140625,0.005955760832875967,0.025655584409832954,0.00992626789957285
1772558444820212200,4.058212158203125,-0.0030542362947016954,-0.02214321307837963,0.02626643143594265
1772558444838984700,4.076984619140625,0.0018325417768210173,-0.04367557913064957,0.019241688773036003
1772558444857757000,4.0957568359375,0.016340164467692375,-0.01252236869186163,-0.01175880990922451
1772558444876529400,4.114529296875,0.02733541466295719,0.024281177669763565,-0.03268032893538475
1772558444895301600,4.133301513671875,0.026724567636847496,0.03787253051996231,-0.021837789565324783
1772558444914074000,4.15207421875,0.013285927474498749,0.017561858519911766,0.0021379655227065086
1772558444932846300,4.170846435546875,-0.0024433890357613564,-0.010231691412627697,0.016798298805952072
1772558444951618600,4.18961865234375,-0.021379653364419937,-0.026571854948997498,0.02076880633831024
1772558444970391000,4.20839111328125,-0.045202698558568954,-0.034665580838918686,0.011606098152697086
1772558444989163300,4.227163330078125,-0.04459185153245926,-0.009620844386518002,0.058183200657367706
1772558445007935700,4.245935791015625,-0.038483377546072006,-0.0325276181101799,0.14782503247261047
1772558445026708000,4.2647080078125,-0.036039989441633224,-0.05344913527369499,0.1698155403137207
1772558445045480400,4.28348046875,-0.007941014133393764,-0.057114217430353165,0.12965233623981476
1772558445064252700,4.302252685546875,0.012827792204916477,-0.03298575058579445,0.0778830274939537
1772558445083025000,4.32102490234375,-0.0018325417768210173,-0.019394399598240852,0.04978405311703682
1772558445101797400,4.33979736328125,-0.017714571207761765,-0.08078455179929733,0.05207473039627075
1772558445120569600,4.358569580078125,0.004275931045413017,-0.11010521650314331,0.05085303261876106
1772558445139342000,4.377342041015625,0.004275931045413017,-0.034818295389413834,0.03573456406593323
1772558445158114300,4.3961142578125,-0.02993151545524597,-0.0035123717971146107,0.05375456064939499
1772558445176886800,4.41488671875,-0.0525328628718853,-0.043981000781059265,0.11209046840667725
1772558445195659000,4.433658935546875,-0.045202698558568954,-0.06337540596723557,0.15958385169506073
1772558445214431500,4.452431396484375,-0.031153209507465363,-0.04459185153245926,0.1560714691877365
1772558445233203700,4.47120361328125,-0.0584886260330677,-0.0528382882475853,0.16370706260204315
1772558445251976200,4.48997607421875,-0.06047387793660164,-0.0528382882475853,0.16126367449760437
1772558445270748400,4.50874853515625,-0.05070032179355621,-0.02748812735080719,0.11621369421482086
1772558445289520600,4.527520751953125,-0.04459185153245926,0.02473931387066841,0.06810946762561798
1772558445308293000,4.546293212890625,-0.06841489672660828,0.0015271181473508477,0.06795676052570343
1772558445327065300,4.5650654296875,-0.05497625470161438,0.014660334214568138,0.051616594195365906
1772558445345837800,4.583837890625,-0.04459185153245926,0.0587940476834774,-0.007330167107284069
1772558445364610000,4.602610107421875,-0.08551861345767975,0.007941014133393764,-0.03558185324072838
1772558445383382500,4.621382568359375,-0.05925218388438225,0.04856235533952713,0.0009162708884105086
1772558445402154800,4.64015478515625,-0.030542362481355667,0.029473381116986275,-0.00992626789957285
1772558445420927200,4.65892724609375,-0.05925218388438225,0.031153209507465363,-0.025502873584628105
1772558445439699500,4.677699462890625,-0.054365407675504684,0.043828289955854416,0.0065666078589856625
1772558445458471700,4.6964716796875,-0.009773556143045425,-0.017561858519911766,0.01435491070151329
1772558445477244200,4.715244140625,0.02076880633831024,-0.08200624585151672,0.01252236869186163
1772558445496016400,4.734016357421875,0.047646086663007736,-0.16584503650665283,0.06673506647348404
1772558445514788900,4.752788818359375,0.07513421028852463,-0.16462333500385284,0.10689827054738998
1772558445533561000,4.77156103515625,0.0841442123055458,-0.07437065243721008,0.07864658534526825
1772558445552333600,4.79033349609375,0.07742489129304886,-0.025808297097682953,0.02764083817601204
1772558445571105800,4.809105712890625,0.033443886786699295,-0.06352811306715012,-0.011300674639642239
1772558445589878300,4.827878173828125,-0.018936265259981155,-0.07360709458589554,-0.02473931387066841
1772558445608650500,4.846650390625,-0.04153761267662048,-0.06413896381855011,-0.008857285603880882
1772558445627423000,4.865423095703125,-0.012216945178806782,-0.03924693539738655,-0.00992626789957285
1772558445646195200,4.8841953125,-0.0024433890357613564,-0.054365407675504684,-0.005955760832875967
1772558445664967400,4.902967529296875,0.0050394898280501366,-0.08872556686401367,0.006413896102458239
1772558445683740000,4.921739990234375,0.001374406274408102,-0.1047603040933609,-0.004581354558467865
1772558445702512000,4.94051220703125,-0.010231691412627697,-0.06413896381855011,-0.014507622458040714
1772558445721284600,4.95928466796875,-0.04932591691613197,-0.07666133344173431,-0.001374406274408102
1772558445740056800,4.978056884765625,-0.06704048812389374,-0.08139539510011673,0.0012216945178806782
1772558445758829300,4.996829345703125,-0.0584886260330677,-0.09239064902067184,-0.03573456406593323
1772558445777601500,5.0156015625,-0.07375980913639069,-0.08368607610464096,-0.06383354216814041
1772558445796374000,5.0343740234375,-0.07864658534526825,-0.091321662068367,-0.07605048269033432
1772558445815146200,5.053146240234375,-0.0590994730591774,-0.09407047927379608,-0.06734590977430344
1772558445833918700,5.071918701171875,-0.013285927474498749,-0.08383878320455551,-0.10521844029426575
1772558445852691000,5.09069091796875,-0.014049487188458443,0.0009162708884105086,-0.13408097624778748
1772558445871463400,5.10946337890625,-0.009773556143045425,0.01038440316915512,-0.03512371703982353
1772558445890235600,5.128235595703125,-0.005955760832875967,-0.0261137206107378,0.04352286830544472
1772558445909008000,5.1470078125,-0.004123218823224306,-0.05405998229980469,0.045202698558568954
1772558445927780400,5.1657802734375,0.011606098152697086,-0.038483377546072006,-0.013133215717971325
1772558445946552600,5.184552490234375,0.0018325417768210173,0.0032069480512291193,-0.0653606578707695
1772558445965325000,5.203324951171875,-0.015271181240677834,0.03573456406593323,-0.049173206090927124
1772558445984097300,5.22209716796875,-0.007330167107284069,0.028251685202121735,-0.018783552572131157
1772558446002869800,5.240869873046875,-0.014660334214568138,0.027793550863862038,-0.01511846948415041
1772558446021642000,5.25964208984375,-0.02489202655851841,0.01725643500685692,0.012980503961443901
1772558446040414500,5.27841455078125,-0.021226942539215088,-0.001985253533348441,0.030695075169205666
1772558446059186700,5.297186767578125,-0.017561858519911766,-0.027029991149902344,0.025655584409832954
1772558446077959200,5.315959228515625,-0.012675080448389053,-0.045355409383773804,0.01969982497394085
1772558446096731400,5.3347314453125,0.011147962883114815,-0.05344913527369499,0.001985253533348441
1772558446115503900,5.35350390625,0.03542914241552353,-0.06948387622833252,-0.013285927474498749
1772558446134276000,5.372276123046875,0.016492875292897224,-0.05100574716925621,-0.03588727489113808
1772558446153048600,5.391048583984375,-0.03955236077308655,-0.06963659077882767,-0.021990500390529633
1772558446171820800,5.40982080078125,-0.06642963737249374,-0.13530266284942627,0.021990500390529633
1772558446190593000,5.428593017578125,-0.05421269312500954,-0.16630317270755768,-0.014049487188458443
1772558446209365500,5.447365478515625,-0.029778804630041122,-0.12583453953266144,-0.14461809396743774
1772558446228137700,5.4661376953125,-0.03420744836330414,-0.06841489672660828,-0.20646637678146362
1772558446246910200,5.48491015625,-0.10613471269607544,-0.12018419802188873,-0.13744063675403595
1772558446265682400,5.503682373046875,-0.16462333500385284,-0.10842538625001907,-0.04978405311703682
1772558446284455000,5.522454833984375,-0.12323843687772751,0.0065666078589856625,-0.051769305020570755
1772558446303227100,5.54122705078125,-0.05803048983216286,0.07559234648942947,-0.11010521650314331
1772558446321999600,5.55999951171875,-0.021379653364419937,0.12262758612632751,-0.13438639044761658
1772558446340771800,5.578771728515625,-0.02993151545524597,0.21089501678943634,-0.1322484314441681
1772558446359544300,5.59754443359375,-0.05375456064939499,0.24693500995635986,-0.0784938707947731
1772558446378316500,5.616316650390625,-0.045202698558568954,0.2489202618598938,0.0038177953101694584
1772558446397089000,5.635089111328125,-0.0390942245721817,0.27289602160453796,0.021379653364419937
1772558446415861200,5.653861328125,-0.04092676565051079,0.3310792148113251,-0.03802524134516716
1772558446434633700,5.6726337890625,-0.061084724962711334,0.3342861533164978,-0.06337540596723557
1772558446453406000,5.691406005859375,-0.08307522535324097,0.27686652541160583,-0.04184303805232048
1772558446472178200,5.71017822265625,-0.07513421028852463,0.23166382312774658,-0.013285927474498749
1772558446490950700,5.72895068359375,-0.06902574002742767,0.23410721123218536,-0.016340164467692375
1772558446509723100,5.74772314453125,-0.08628217875957489,0.3955236077308655,-0.07681404054164886
1772558446528495400,5.766495361328125,-0.12797249853610992,0.6551336646080017,-0.20738264918327332
1772558446547267800,5.785267822265625,-0.17317520081996918,0.7666133046150208,-0.2713688910007477
1772558446566040000,5.8040400390625,-0.17745113372802734,0.7441646456718445,-0.23319093883037567
1772558446584812500,5.8228125,-0.1901262104511261,0.7777612805366516,-0.14522893726825714
1772558446603584800,5.841584716796875,-0.197609081864357,0.9770501852035522,-0.08765657991170883
1772558446622357000,5.86035693359375,-0.20188501477241516,1.162900447845459,-0.07681404054164886
1772558446641129500,5.87912939453125,-0.16966283321380615,1.203369140625,-0.057114217430353165
1772558446659901700,5.897901611328125,-0.14522893726825714,1.1749646663665771,-0.038636088371276855
1772558446678674200,5.916674072265625,-0.1525591015815735,1.1277767419815063,-0.02229592576622963
1772558446697446400,5.9354462890625,-0.19455485045909882,1.0231691598892212,0.018019994720816612
1772558446716219000,5.954218994140625,-0.19195875525474548,0.9920159578323364,0.08551861345767975
1772558446734991000,5.9729912109375,-0.1847812980413437,0.9984298348426819,0.06429167091846466
1772558446753763600,5.991763671875,-0.18646112084388733,0.9561286568641663,0.05085303261876106
1772558446772535800,6.010535888671875,-0.16141638159751892,0.8353336453437805,0.06795676052570343
1772558446791308300,6.029308349609375,-0.1779092699289322,0.7130114436149597,0.06826218217611313
1772558446810080500,6.04808056640625,-0.27976804971694946,0.6065713167190552,0.0647498071193695
1772558446828853000,6.06685302734375,-0.3352024257183075,0.5957288146018982,-0.001985253533348441
1772558446847625200,6.085625244140625,-0.3694098889827728,0.592216432094574,-0.10903623700141907
1772558446866397700,6.104397705078125,-0.3871244490146637,0.6394043564796448,-0.12110047042369843
1772558446885170000,6.123169921875,-0.38788801431655884,0.694227933883667,-0.12323843687772751
1772558446903942400,6.1419423828125,-0.37322768568992615,0.6485670804977417,-0.15775130689144135
1772558446922714600,6.160714599609375,-0.35169529914855957,0.5752654075622559,-0.14156384766101837
1772558446941487000,6.179487060546875,-0.3571929335594177,0.552664041519165,-0.1441599577665329
1772558446960259300,6.19825927734375,-0.34192174673080444,0.5494571328163147,-0.15775130689144135
1772558446979031800,6.21703173828125,-0.31626617908477783,0.5083776116371155,-0.14156384766101837
1772558446997804000,6.235803955078125,-0.2912214398384094,0.48455458879470825,-0.10582929104566574
1772558447016576500,6.254576416015625,-0.24662958085536957,0.41232189536094666,-0.09086353331804276
1772558447035348700,6.2733486328125,-0.2217375487089157,0.3820849657058716,-0.1181989461183548
1772558447054121200,6.292121337890625,-0.16065283119678497,0.30756160616874695,-0.10185877978801727
1772558447072893400,6.3108935546875,-0.08063183724880219,0.145687073469162,-0.06047387793660164
1772558447091666000,6.329666015625,-0.06704048812389374,0.07238540053367615,-0.04306473210453987
1772558447110438100,6.348438232421875,-0.059710320085287094,0.059557609260082245,-0.011300674639642239
1772558447129210600,6.367210693359375,-0.023823043331503868,0.051769305020570755,0.0018325417768210173
1772558447147982800,6.38598291015625,-0.012216945178806782,0.0781884491443634,-0.016034740954637527
1772558447166755300,6.40475537109375,-0.03176405653357506,0.1757712960243225,-0.0791047215461731
1772558447185527600,6.423527587890625,-0.042759306728839874,0.16126367449760437,-0.08246438205242157
1772558447204300000,6.442300048828125,-0.05070032179355621,0.07498150318861008,-0.02901524491608143
1772558447223072300,6.461072265625,-0.04810422286391258,-0.019241688773036003,0.016187451779842377
1772558447241844700,6.4798447265625,-0.033443886786699295,0.010231691412627697,-0.012216945178806782
1772558447260617000,6.498616943359375,-0.005497625097632408,0.0981936976313591,-0.06276455521583557
1772558447279389400,6.517389404296875,-0.007330167107284069,0.07681404054164886,-0.029473381116986275
1772558447298161700,6.53616162109375,-0.030389651656150818,0.01969982497394085,0.04947862774133682
1772558447316934100,6.55493408203125,-0.03161134570837021,0.0012216945178806782,0.031916771084070206
1772558447335706400,6.573706298828125,-0.02504473738372326,0.019088976085186005,-0.022906772792339325
1772558447354478800,6.592478759765625,-0.01588202826678753,0.06642963737249374,-0.030542362481355667
1772558447373251000,6.6112509765625,-0.023212196305394173,0.072232685983181,-0.014049487188458443
1772558447392023600,6.6300234375,-0.012216945178806782,0.03542914241552353,0.007788302376866341
1772558447410796000,6.648796142578125,0.0024433890357613564,0.042606595903635025,-0.0035123717971146107
1772558447429568300,6.667568359375,0.021379653364419937,0.03130592033267021,-0.022601349279284477
1772558447448340500,6.686340576171875,0.03787253051996231,-0.0459662564098835,-0.02107422985136509
1772558447467113000,6.705113037109375,0.03924693539738655,-0.11468657106161118,-0.013591351918876171
1772558447485885400,6.723885498046875,0.036039989441633224,-0.10949437320232391,-0.03542914241552353
1772558447504657700,6.74265771484375,0.023823043331503868,-0.027793550863862038,-0.0647498071193695
1772558447523430100,6.76143017578125,-0.012216945178806782,0.04840964451432228,-0.056961506605148315
1772558447542202400,6.780202392578125,-0.028098974376916885,0.047951508313417435,-0.015423892997205257
1772558447560974800,6.798974853515625,-0.019394399598240852,0.01969982497394085,-0.022906772792339325
1772558447579747000,6.8177470703125,0.012980503961443901,-0.06184828653931618,-0.031916771084070206
1772558447598519600,6.83651953125,0.03374931216239929,-0.10979979485273361,-0.017409147694706917
1772558447617291800,6.855291748046875,0.019088976085186005,-0.05543438717722893,-0.006108472589403391
1772558447636064300,6.874064208984375,-0.006719320081174374,0.04581354558467865,-0.025961007922887802
1772558447654836500,6.89283642578125,-0.02733541466295719,0.021837789565324783,-0.012369656935334206
1772558447673609000,6.91160888671875,-0.031000498682260513,-0.056961506605148315,0.008246437646448612
1772558447692381200,6.930381103515625,-0.03527642786502838,-0.05726693198084831,-0.007941014133393764
1772558447711153700,6.949153564453125,-0.03955236077308655,0.011147962883114815,-0.025197450071573257
1772558447729926000,6.96792578125,-0.03405473381280899,0.025197450071573257,0.008551862090826035
1772558447748698400,6.986698486328125,-0.007177455350756645,-0.02504473738372326,0.02993151545524597
1772558447767470600,7.005470703125,0.02641914412379265,-0.09559759497642517,0.03237490355968475
1772558447786243000,7.0242431640625,0.03436015918850899,-0.07009471952915192,0.031916771084070206
1772558447805015300,7.043015380859375,-0.025655584409832954,0.05604523420333862,-0.00015271181473508477
1772558447823787800,7.061787841796875,-0.060932014137506485,0.08429691940546036,0.019241688773036003
1772558447842560000,7.08056005859375,-0.05604523420333862,0.02886253222823143,0.04688252881169319
1772558447861332500,7.09933251953125,-0.03649812191724777,-0.07727217674255371,0.06994201242923737
1772558447880104700,7.118104736328125,-0.01511846948415041,-0.14629791676998138,0.05635065957903862
1772558447898877200,7.136877197265625,-0.007177455350756645,-0.10979979485273361,-0.016187451779842377
1772558447917649700,7.155649658203125,0.012216945178806782,-0.027946261689066887,-0.072843536734581
1772558447936422000,7.174421875,0.009773556143045425,-0.0009162708884105086,-0.062153708189725876
1772558447955194400,7.1931943359375,0.0007635590736754239,-0.0393996499478817,0.0065666078589856625
1772558447973966600,7.211966552734375,0.0032069480512291193,-0.04886778071522713,0.024128466844558716
1772558447992739000,7.230739013671875,0.012216945178806782,-0.04291202127933502,-0.026724567636847496
1772558448011511300,7.24951123046875,0.023823043331503868,-0.04459185153245926,-0.05268557742238045
1772558448030283800,7.26828369140625,0.028098974376916885,-0.06154286116361618,-0.04688252881169319
1772558448049056000,7.287055908203125,0.022601349279284477,-0.030847785994410515,-0.029473381116986275
1772558448067828500,7.305828369140625,0.012216945178806782,-0.023212196305394173,-0.005955760832875967
1772558448086600700,7.3246005859375,0.01038440316915512,-0.020005248486995697,0.008704573847353458
1772558448105373200,7.343373291015625,0.03176405653357506,-0.012827792204916477,-0.0032069480512291193
1772558448124145700,7.362145751953125,0.04886778071522713,-0.04062134400010109,-0.028557108715176582
1772558448142918000,7.38091796875,0.021379653364419937,-0.04077405482530594,-0.034818295389413834
1772558448161690000,7.399690185546875,0.001985253533348441,-0.04199574887752533,-0.0032069480512291193
1772558448180462600,7.418462646484375,-0.004123218823224306,-0.016340164467692375,0.0068720318377017975
1772558448199235000,7.437235107421875,0.0030542362947016954,-0.007635590620338917,-0.023059483617544174
1772558448218007300,7.45600732421875,0.01954711228609085,-0.05635065957903862,-0.027793550863862038
1772558448236779800,7.47477978515625,0.028251685202121735,-0.09773556143045425,0.009620844386518002
1772558448255552000,7.493552001953125,0.021379653364419937,-0.04046862944960594,0.02092151902616024
1772558448274324500,7.512324462890625,0.011606098152697086,0.040010496973991394,-0.016492875292897224
1772558448293096700,7.5310966796875,0.021379653364419937,0.022906772792339325,-0.015576604753732681
1772558448311869200,7.549869140625,0.004275931045413017,0.020616095513105392,-0.00259610079228878
1772558448330641400,7.568641357421875,-0.013438640162348747,0.018936265259981155,0.0006108472589403391
1772558448349414000,7.587413818359375,-0.004734066314995289,-0.03023693896830082,0.014507622458040714
1772558448368186400,7.606186279296875,0.01847812905907631,-0.06444438546895981,0.0009162708884105086
1772558448386958600,7.62495849609375,0.014202198944985867,-0.05803048983216286,-0.012216945178806782
1772558448405731000,7.64373095703125,0.00259610079228878,-0.02244863659143448,-0.0010689827613532543
1772558448424503300,7.66250341796875,-0.0010689827613532543,-0.0007635590736754239,0.025655584409832954
1772558448443275800,7.68127587890625,0.016492875292897224,-0.020005248486995697,0.0038177953101694584
1772558448462048000,7.700048095703125,0.01832541823387146,-0.037567105144262314,-0.02748812735080719
1772558448480820500,7.718820556640625,0.007330167107284069,-0.020157959312200546,-0.01175880990922451
1772558448499593000,7.737593017578125,0.014049487188458443,0.006108472589403391,-0.0035123717971146107
1772558448518365200,7.756365234375,0.0024433890357613564,0.018630841746926308,-0.018630841746926308
1772558448537137400,7.775137451171875,-0.006108472589403391,0.004123218823224306,-0.01588202826678753
1772558448555910000,7.793909912109375,0.007482878863811493,-0.02351761981844902,0.010689826682209969
1772558448574682400,7.812682373046875,0.019088976085186005,-0.03817795217037201,0.014049487188458443
1772558448593454600,7.83145458984375,0.0390942245721817,-0.05115845799446106,-0.009773556143045425
1772558448612227000,7.85022705078125,0.038483377546072006,-0.04184303805232048,-0.025502873584628105
1772558448630999300,7.868999267578125,0.020157959312200546,-0.03649812191724777,-0.005803049076348543
1772558448649771800,7.887771728515625,0.011606098152697086,-0.012064233422279358,0.0024433890357613564
1772558448668544300,7.906544189453125,-0.0024433890357613564,0.02626643143594265,-0.031153209507465363
1772558448687316500,7.92531640625,0.007330167107284069,0.020005248486995697,-0.042759306728839874
1772558448706088700,7.944088623046875,0.004886778071522713,-0.03390202298760414,-0.029320668429136276
1772558448724861200,7.962861083984375,0.023212196305394173,-0.04718795046210289,-0.02351761981844902
1772558448743633700,7.981633544921875,0.020157959312200546,0.016034740954637527,-0.022906772792339325
1772558448762406000,8.000406005859375,0.008551862090826035,0.016340164467692375,-0.005497625097632408
1772558448781178400,8.019178466796875,0.0050394898280501366,-0.013896775431931019,0.0018325417768210173
1772558448799950600,8.03795068359375,0.0032069480512291193,-0.031916771084070206,-0.021990500390529633
1772558448818723000,8.05672314453125,0.006261184345930815,-0.05894676223397255,-0.030695075169205666
1772558448837495600,8.07549560546875,0.014660334214568138,-0.06673506647348404,-0.02870982140302658
1772558448856267800,8.094267822265625,0.014660334214568138,-0.05100574716925621,-0.026571854948997498
1772558448875040300,8.113040283203125,0.0030542362947016954,-0.03634541109204292,-0.028098974376916885
1772558448893812500,8.1318125,-0.004275931045413017,0.014965757727622986,-0.01725643500685692
1772558448912585000,8.1505849609375,-0.012827792204916477,0.04963133856654167,-0.015423892997205257
1772558448931357200,8.169357177734375,-0.01710372418165207,0.038788799196481705,-0.008399149402976036
1772558448950129700,8.188129638671874,-0.012675080448389053,0.005650337319821119,0.007635590620338917
1772558448968902000,8.20690185546875,-0.0035123717971146107,-0.03130592033267021,0.022601349279284477
1772558448987674400,8.22567431640625,-0.021837789565324783,0.026724567636847496,0.03390202298760414
1772558449006446800,8.24444677734375,-0.01572931744158268,0.027946261689066887,0.03817795217037201
1772558449025219000,8.263218994140624,0.001374406274408102,-0.011147962883114815,0.026571854948997498
1772558449043991600,8.281991455078124,-0.005955760832875967,-0.04077405482530594,0.0016798300202935934
1772558449062763800,8.300763671875,-0.012675080448389053,-0.013896775431931019,0.0024433890357613564
1772558449081536300,8.319536376953126,-0.021990500390529633,0.045355409383773804,-0.02214321307837963
1772558449100308700,8.338308837890626,-0.012216945178806782,0.06123743951320648,-0.011300674639642239
1772558449119081000,8.3570810546875,-0.0024433890357613564,0.010842538438737392,-0.009773556143045425
1772558449137853400,8.375853515625,0.0050394898280501366,-0.045202698558568954,-0.010537114925682545
1772558449156625700,8.394625732421876,-0.0065666078589856625,-0.019088976085186005,-0.016034740954637527
1772558449175398100,8.413398193359376,-0.007330167107284069,0.02214321307837963,-0.02367033064365387
1772558449194170400,8.43217041015625,0.0030542362947016954,-0.016492875292897224,-0.008704573847353458
1772558449212942800,8.45094287109375,0.01847812905907631,-0.062153708189725876,-0.008399149402976036
1772558449231715300,8.46971533203125,0.015271181240677834,-0.04886778071522713,-0.014813045971095562
1772558449250487600,8.488487548828125,0.0032069480512291193,-0.01252236869186163,0.013591351918876171
1772558449269260000,8.507260009765625,-0.013896775431931019,0.03649812191724777,0.0393996499478817
1772558449288032300,8.5260322265625,-0.016340164467692375,0.046729814261198044,0.030389651656150818
1772558449306804700,8.5448046875,0.006261184345930815,-0.043981000781059265,0.029626091942191124
1772558449325577200,8.5635771484375,0.014202198944985867,-0.11667182296514511,0.04337015375494957
1772558449344349400,8.582349365234375,0.02214321307837963,-0.08032641559839249,0.03955236077308655
1772558449363122000,8.601121826171875,0.017714571207761765,-0.02092151902616024,0.0198525357991457
1772558449381894100,8.61989404296875,0.0006108472589403391,0.004581354558467865,0.016340164467692375
1772558449400666600,8.63866650390625,-0.014507622458040714,0.013438640162348747,0.001374406274408102
1772558449419439000,8.657439208984375,-0.010995250195264816,0.004581354558467865,-0.020157959312200546
1772558449438211300,8.67621142578125,-0.0010689827613532543,-0.03588727489113808,-0.00519220158457756
1772558449456983800,8.69498388671875,0.0068720318377017975,-0.05375456064939499,0.02733541466295719
1772558449475756000,8.713756103515625,-0.0006108472589403391,0.0032069480512291193,0.010842538438737392
1772558449494528500,8.732528564453125,0.006108472589403391,0.01252236869186163,-0.015423892997205257
1772558449513300700,8.75130078125,0.0038177953101694584,-0.05467082932591438,0.0032069480512291193
1772558449532073200,8.7700732421875,0.017867282032966614,-0.1241547018289566,0.03665083646774292
1772558449550845700,8.788845703125,0.037414394319057465,-0.10521844029426575,0.03451287001371384
1772558449569618000,8.807617919921874,0.04153761267662048,-0.0065666078589856625,0.004123218823224306
1772558449588390400,8.826390380859374,0.043981000781059265,0.06139015033841133,-0.0038177953101694584
1772558449607162600,8.84516259765625,0.02993151545524597,0.005803049076348543,0.020005248486995697
1772558449625935000,8.86393505859375,0.022754060104489326,-0.08185353130102158,0.0198525357991457
1772558449644707600,8.88270751953125,0.023975754156708717,-0.1169772520661354,-0.008704573847353458
1772558449663479800,8.901479736328126,0.02214321307837963,-0.07360709458589554,0.0010689827613532543
1772558449682252300,8.920252197265626,0.008093725889921188,-0.025961007922887802,0.008857285603880882
1772558449701024500,8.9390244140625,-0.004886778071522713,0.005497625097632408,0.004581354558467865
1772558449719797000,8.957796875,-0.004275931045413017,0.023364907130599022,0.01038440316915512
1772558449738569500,8.976569580078126,-0.012064233422279358,-0.014202198944985867,0.01847812905907631
1772558449757341700,8.995341796875,-0.01817270554602146,-0.04352286830544472,0.01038440316915512
1772558449776114200,9.0141142578125,-0.01572931744158268,-0.0021379655227065086,-0.017561858519911766
1772558449794886400,9.032886474609375,-0.006719320081174374,0.037261683493852615,0.004581354558467865
1772558449813659000,9.051658935546875,-0.012827792204916477,0.037567105144262314,0.028098974376916885
1772558449832431000,9.07043115234375,-0.014660334214568138,0.04092676565051079,0.007024743594229221
1772558449851203600,9.08920361328125,0,-0.01954711228609085,-0.008551862090826035
1772558449869976000,9.10797607421875,0.0038177953101694584,-0.04840964451432228,0.018019994720816612
1772558449888748300,9.126748291015625,0.01038440316915512,-0.038788799196481705,0.0029015245381742716
1772558449907520800,9.145520751953125,0.016492875292897224,-0.005650337319821119,-0.01572931744158268
1772558449926293000,9.16429296875,0.006108472589403391,0.002748812548816204,-0.021379653364419937
1772558449945065500,9.1830654296875,-0.02244863659143448,0.012216945178806782,-0.0018325417768210173
1772558449963838000,9.201837890625,-0.0012216945178806782,0.007788302376866341,-0.010995250195264816
1772558449982610200,9.220610107421875,-0.006108472589403391,0.008399149402976036,-0.007177455350756645
1772558450001382700,9.239382568359375,-0.0024433890357613564,0.020463382825255394,-0.01435491070151329
1772558450020155100,9.258155029296875,-0.01038440316915512,0.03130592033267021,-0.023212196305394173
1772558450038927400,9.27692724609375,0.0018325417768210173,0.011453386396169662,0.02993151545524597
1772558450057699800,9.295699951171875,0.004428642801940441,-0.006413896102458239,0.02092151902616024
1772558450076472000,9.31447216796875,-0.008551862090826035,0.03665083646774292,-0.02764083817601204
1772558450095244500,9.33324462890625,0.0012216945178806782,0.014813045971095562,-0.027182703837752342
1772558450114017000,9.35201708984375,-0.004886778071522713,-0.017714571207761765,-0.03955236077308655
1772558450132789200,9.370789306640624,0.005497625097632408,-0.029167955741286278,-0.041232191026210785
1772558450151561700,9.389561767578124,0.006108472589403391,-0.004886778071522713,-0.007635590620338917
1772558450170334000,9.408333984375,0.006719320081174374,0.01969982497394085,0.016034740954637527
1772558450189106400,9.4271064453125,0.0012216945178806782,0.007788302376866341,-0.004734066314995289
1772558450207878700,9.445878662109376,0.004275931045413017,-0.01175880990922451,-0.009315420873463154
1772558450226651100,9.464651123046876,-0.01695101149380207,-0.001985253533348441,-0.010689826682209969
1772558450245423600,9.483423583984376,-0.01588202826678753,0.02870982140302658,0.0016798300202935934
1772558450264195800,9.50219580078125,-0.00916270911693573,0.04688252881169319,0.00259610079228878
1772558450282968300,9.52096826171875,0.004886778071522713,0.001985253533348441,0.006413896102458239
1772558450301740500,9.539740478515625,0.0068720318377017975,-0.03924693539738655,0.02076880633831024
1772558450320513000,9.558512939453125,-0.0065666078589856625,-0.003359660040587187,0.02214321307837963
1772558450339285500,9.577285400390625,-0.0036650835536420345,0.025808297097682953,0.011606098152697086
1772558450358057700,9.5960576171875,0.0036650835536420345,-0.01695101149380207,0.0006108472589403391
1772558450376830200,9.614830322265625,-0.012064233422279358,-0.012827792204916477,-0.0024433890357613564
1772558450395602400,9.6336025390625,-0.00916270911693573,0.014660334214568138,0.0012216945178806782
1772558450414375000,9.652375,-0.009620844386518002,0.015423892997205257,0.016187451779842377
1772558450433147100,9.671147216796875,-0.029778804630041122,0.004581354558467865,0.020005248486995697
1772558450451919600,9.689919677734375,-0.021837789565324783,0.0038177953101694584,0.014507622458040714
1772558450470692000,9.708692138671875,0.0030542362947016954,-0.012827792204916477,-0.004428642801940441
1772558450489464300,9.72746435546875,0.00916270911693573,-0.023975754156708717,-0.02092151902616024
1772558450508236800,9.74623681640625,-0.0004581354442052543,-0.029473381116986275,-0.016492875292897224
1772558450527009000,9.765009033203125,-0.0029015245381742716,-0.031153209507465363,0.02993151545524597
1772558450545781500,9.783781494140625,-0.004123218823224306,-0.016798298805952072,0.05085303261876106
1772558450564554000,9.802553955078125,0.0007635590736754239,-0.016340164467692375,0.04459185153245926
1772558450583326200,9.821326171875,-0.023059483617544174,-0.016034740954637527,0.025350160896778107
1772558450602098700,9.8400986328125,-0.03649812191724777,-0.0021379655227065086,0.012064233422279358
1772558450620871000,9.858870849609374,-0.10979979485273361,0.08322793990373611,-0.011147962883114815
1772558450639643400,9.877643310546874,-0.14095300436019897,0.030695075169205666,0.014049487188458443
1772558450658415600,9.89641552734375,-0.18783552944660187,-0.125987246632576,-0.043828289955854416
1772558450677188000,9.91518798828125,-0.07009471952915192,-0.018630841746926308,-0.026571854948997498
1772558450695960300,9.933960205078124,-0.005497625097632408,0.03833066672086716,-0.08078455179929733
1772558450714732800,9.95273291015625,-0.004275931045413017,0.07925742864608765,-0.0716218426823616
1772558450733505300,9.97150537109375,0.0024433890357613564,0.06337540596723557,0.0065666078589856625
1772558450752277500,9.990277587890626,0.034818295389413834,0.031153209507465363,0.11682453751564026
